// Start Time: Unknown
// Update Rate: Various
// Filter Profile: general (39.15)
// Option Flags: AHS Disabled ICC Disabled 
// Firmware Version: 1.10.0
PacketCounter	SampleTimeFine	Acc_X	Acc_Y	Acc_Z	Gyr_X	Gyr_Y	Gyr_Z	Mag_X	Mag_Y	Mag_Z	Roll	Pitch	Yaw
16969	11920915	0.110395	0.049805	9.844748	-0.003281	0.012980	-0.009634				-0.305940	-0.490007	29.895012
16973	11920940	0.122805	0.040603	9.838004	-0.011735	0.017574	-0.010745				-0.307608	-0.487498	29.893451
16976	11920965	0.147455	0.034218	9.840936	-0.012055	-0.004108	-0.009927	0.284215	-0.255270	-0.955264	-0.309322	-0.488094	29.892025
16980	11920990	0.133842	0.038214	9.850431	-0.005893	0.000952	-0.010447				-0.310154	-0.487966	29.890529
16983	11921015	0.124440	0.037787	9.820190	-0.009301	0.006612	-0.016157				-0.309084	-0.488815	29.890398
16987	11921040	0.140486	0.039783	9.840876	0.005658	0.001270	-0.002186				-0.308271	-0.488635	29.890080
16990	11921065	0.105341	0.048139	9.829633	-0.021572	0.006682	-0.008917	0.283728	-0.254769	-0.955255	-0.311350	-0.487685	29.888786
16994	11921090	0.121679	0.049907	9.824252	-0.010097	-0.003546	-0.010420				-0.312784	-0.488201	29.887310
16997	11921115	0.128675	0.023162	9.828504	0.000219	0.005993	-0.019011				-0.309190	-0.488433	29.884566
17001	11921140	0.135174	0.035444	9.838101	-0.000189	0.007434	0.011575				-0.309231	-0.487359	29.886218
17004	11921165	0.126004	0.027053	9.839442	-0.024268	-0.012587	0.002436	0.282805	-0.255735	-0.954788	-0.312711	-0.489160	29.886574
17008	11921190	0.135386	0.039480	9.831235	-0.003260	-0.008750	-0.000498				-0.313177	-0.490414	29.886516
17011	11921215	0.121564	0.051314	9.822881	-0.009428	0.012521	-0.017047				-0.312538	-0.489616	29.882648
17015	11921240	0.133702	0.048760	9.827086	-0.008735	0.003795	0.006928				-0.313797	-0.489066	29.883643
17018	11921265	0.123939	0.064733	9.839299	-0.012332	0.004956	-0.004262	0.282805	-0.255735	-0.954788	-0.315559	-0.488360	29.883032
17022	11921290	0.128613	0.035357	9.827098	-0.001605	-0.010568	0.008889				-0.315799	-0.489867	29.884316
17025	11921315	0.139261	0.051671	9.828488	-0.004299	-0.004441	-0.012043				-0.313689	-0.491979	29.881232
17029	11921340	0.148655	0.054421	9.818941	-0.005303	-0.001261	-0.002733				-0.314445	-0.492162	29.880840
17032	11921365	0.132546	0.040795	9.820242	-0.000027	0.006148	-0.006342	0.283737	-0.255262	-0.955267	-0.314441	-0.491286	29.879917
17036	11921390	0.128816	0.029969	9.824360	-0.001810	0.000355	0.009459				-0.314712	-0.491228	29.881276
17039	11921415	0.125979	0.028868	9.842186	0.017869	-0.017539	0.030415				-0.309223	-0.497001	29.885600
17043	11921440	0.144203	0.054679	9.843603	0.011148	0.010778	-0.008692				-0.307615	-0.495464	29.884354
17046	11921465	0.112455	0.026883	9.831121	-0.019450	0.006367	0.011875	0.283784	-0.256242	-0.954300	-0.310416	-0.494543	29.886041
17050	11921490	0.118689	0.059328	9.817353	-0.000219	0.011644	-0.011119				-0.310434	-0.492883	29.884450
17053	11921515	0.131174	0.040632	9.832570	-0.016016	0.002804	-0.000940				-0.310043	-0.495803	29.887313
17057	11921540	0.133984	0.036627	9.820269	-0.009453	0.009291	0.001554				-0.311399	-0.494471	29.887533
17060	11921565	0.113595	0.048310	9.814604	-0.011642	0.001445	0.001587	0.284242	-0.256747	-0.955299	-0.313069	-0.494263	29.887753
17064	11921590	0.126837	0.037745	9.831190	-0.020869	0.014149	0.008097				-0.316068	-0.492230	29.888907
17067	11921615	0.100016	0.041629	9.843328	-0.011884	0.001815	0.018686				-0.311874	-0.494048	29.888824
17071	11921640	0.116414	0.037782	9.846199	-0.005509	-0.018843	0.008865				-0.312674	-0.496740	29.890108
17074	11921665	0.109689	0.037730	9.826962	0.000730	-0.005767	-0.001477	0.283287	-0.256731	-0.955304	-0.312567	-0.497567	29.889906
17078	11921690	0.099855	0.049559	9.837822	-0.003350	-0.009951	-0.009230				-0.313036	-0.499000	29.888596
17081	11921715	0.101342	0.045407	9.837845	-0.021093	0.002566	-0.002731				-0.315646	-0.496886	29.890657
17085	11921740	0.129851	0.045904	9.831172	-0.017275	-0.004409	0.007007				-0.318129	-0.497513	29.891662
17088	11921765	0.128379	0.045988	9.822943	-0.007445	0.003535	-0.002137	0.281863	-0.257198	-0.955322	-0.319193	-0.497008	29.891355
17092	11921790	0.116480	0.039159	9.820146	0.003973	0.000410	-0.008827				-0.318613	-0.496956	29.890087
17095	11921815	0.107985	0.052453	9.822780	-0.002559	0.001284	0.008443				-0.317100	-0.499966	29.891243
17099	11921840	0.097081	0.060507	9.835027	0.003703	-0.004032	-0.003853				-0.316565	-0.500547	29.890682
17102	11921865	0.099984	0.035010	9.828266	0.010829	0.018045	-0.002414	0.281792	-0.255728	-0.956772	-0.315011	-0.497964	29.890328
17106	11921890	0.129498	0.049157	9.835286	0.018470	0.010800	-0.017653				-0.312343	-0.496431	29.887784
17109	11921915	0.136310	0.051536	9.822978	-0.004171	0.020312	-0.009716				-0.312077	-0.496724	29.887664
17113	11921940	0.122751	0.062200	9.833815	-0.006300	-0.000091	-0.007229				-0.312970	-0.496743	29.886631
17116	11921965	0.124336	0.054218	9.837980	-0.001259	-0.013307	0.010909	0.283262	-0.257722	-0.956811	-0.313164	-0.498640	29.888213
17120	11921990	0.110917	0.043046	9.837912	-0.004579	-0.007224	0.002985				-0.313824	-0.499673	29.888643
17123	11922015	0.109519	0.028327	9.836585	-0.002852	0.002596	-0.005780				-0.307957	-0.498454	29.884802
17127	11922040	0.106941	0.030857	9.840673	-0.012428	-0.003582	-0.004572				-0.309732	-0.498970	29.884148
17130	11922065	0.125759	0.044866	9.833903	0.008920	-0.010324	0.011316	0.282326	-0.257209	-0.955815	-0.308468	-0.500440	29.885769
17134	11922090	0.123329	0.026992	9.835313	-0.013307	-0.008506	0.010480				-0.310387	-0.501650	29.887287
17137	11922115	0.118931	0.018989	9.838051	-0.008748	0.018825	0.003117				-0.307444	-0.500487	29.886670
17141	11922140	0.126165	0.005756	9.845007	-0.009322	0.001223	-0.004257				-0.308774	-0.500315	29.886058
17144	11922165	0.112390	0.026959	9.822878	-0.005506	0.009754	0.006151	0.282322	-0.256222	-0.955297	-0.309571	-0.498913	29.886932
17148	11922190	0.128982	0.015088	9.831272	-0.002466	-0.005715	-0.008573				-0.309913	-0.499738	29.885714
17151	11922215	0.127328	0.012432	9.836761	0.003603	0.011121	0.002423				-0.308038	-0.500240	29.888775
17155	11922240	0.111016	0.024396	9.829757	0.009447	0.011784	-0.001311				-0.306683	-0.498553	29.888579
17158	11922265	0.123333	0.028528	9.824340	0.000484	-0.005795	-0.004688	0.281854	-0.256706	-0.955311	-0.306608	-0.499386	29.887912
17162	11922290	0.115251	0.024386	9.822933	0.005451	-0.002605	0.025123				-0.305859	-0.499740	29.891514
17165	11922315	0.125841	0.033864	9.827081	-0.000665	0.011258	-0.002256				-0.304105	-0.500311	29.886309
17169	11922340	0.125663	0.028553	9.849039	-0.011633	0.005835	-0.009902				-0.305759	-0.499483	29.884877
17172	11922365	0.151546	0.035573	9.838212	-0.014612	-0.001545	-0.006163	0.282326	-0.257209	-0.955815	-0.307844	-0.499709	29.883996
17176	11922390	0.124240	0.044468	9.824292	-0.016625	0.009219	-0.000161				-0.310225	-0.498388	29.883960
17179	11922415	0.143267	0.030162	9.840925	-0.010596	0.017129	-0.001152				-0.305674	-0.499321	29.887402
17183	11922440	0.137624	0.061178	9.825697	0.004274	0.006501	0.011887				-0.305077	-0.498381	29.889097
17186	11922465	0.148940	0.038236	9.812138	-0.000371	0.006342	0.008094	0.282771	-0.256235	-0.956284	-0.305140	-0.497466	29.890244
17190	11922490	0.142386	0.023550	9.820369	0.004365	-0.006396	-0.000006				-0.304515	-0.498382	29.890254
17193	11922515	0.128305	0.036601	9.838066	-0.010502	0.008407	-0.017633				-0.306066	-0.496666	29.887670
17197	11922540	0.139675	0.017945	9.835445	-0.006811	-0.000396	-0.014530				-0.307024	-0.496734	29.885593
17200	11922565	0.108410	0.021617	9.832501	0.004455	-0.000066	-0.007287	0.282326	-0.257209	-0.955815	-0.306376	-0.496749	29.884548
17204	11922590	0.140914	0.016818	9.834101	0.008893	0.005235	0.002345				-0.305105	-0.495997	29.884879
17207	11922615	0.115002	0.025644	9.839366	-0.011879	0.011086	-0.006364				-0.304508	-0.497792	29.883635
17211	11922640	0.109856	0.028263	9.828368	0.001584	-0.010613	-0.004488				-0.304276	-0.499316	29.883009
17214	11922665	0.116441	0.030997	9.858562	-0.013636	-0.016850	-0.015119	0.281381	-0.256203	-0.954807	-0.306210	-0.501741	29.880852
17218	11922690	0.127389	0.019156	9.839482	0.001268	0.004037	-0.010294				-0.306016	-0.501171	29.879384
17221	11922715	0.113954	0.042911	9.809136	-0.014542	-0.025123	-0.001802				-0.304085	-0.506299	29.880934
17225	11922740	0.117785	0.028527	9.828420	0.008722	0.007063	0.018972				-0.302860	-0.505273	29.883645
17228	11922765	0.132649	0.020568	9.835391	0.000057	0.011900	-0.009908	0.283278	-0.256238	-0.955292	-0.302839	-0.503576	29.882221
17232	11922790	0.123142	0.046066	9.822911	-0.002739	-0.002229	-0.017232				-0.303209	-0.503908	29.879754
17235	11922815	0.105647	0.037649	9.832427	-0.003293	-0.009926	-0.021702				-0.300155	-0.506152	29.877633
17239	11922840	0.121946	0.037833	9.814690	-0.002462	-0.004266	-0.028227				-0.300471	-0.506784	29.873594
17242	11922865	0.131230	0.028721	9.843577	-0.005382	0.004147	-0.016099	0.283305	-0.257715	-0.955327	-0.301222	-0.506203	29.871294
17246	11922890	0.110831	0.030995	9.836586	-0.006962	0.004472	-0.016901				-0.302198	-0.505575	29.868873
17249	11922915	0.096342	0.009076	9.836556	-0.012684	0.004004	-0.002246				-0.300472	-0.507670	29.868518
17253	11922940	0.086677	0.037331	9.815825	0.004792	0.010163	-0.008808				-0.299774	-0.506221	29.867246
17256	11922965	0.119176	0.029978	9.844873	0.006412	-0.003804	-0.018355	0.282780	-0.256727	-0.956296	-0.298833	-0.506780	29.864624
17260	11922990	0.120522	0.039166	9.827025	-0.008087	-0.019962	-0.004806				-0.299985	-0.509643	29.863946
17263	11923015	0.117488	0.038068	9.840724	0.015503	0.013712	-0.015372				-0.294634	-0.505905	29.859996
17267	11923040	0.098294	0.040375	9.840594	0.009491	0.024280	0.010785				-0.293288	-0.502419	29.861524
17270	11923065	0.074386	0.015926	9.862436	0.007161	0.010647	-0.007614	0.283283	-0.255744	-0.954786	-0.292253	-0.500899	29.860416
17274	11923090	0.099801	0.042928	9.843322	-0.006285	0.007550	-0.003567				-0.293149	-0.499821	29.859907
17277	11923115	0.107745	0.044685	9.832415	0.014873	0.015563	-0.010678				-0.288328	-0.503244	29.858193
17281	11923140	0.128559	0.054158	9.825662	0.000419	-0.009397	-0.007364				-0.288258	-0.504595	29.857144
17284	11923165	0.098773	0.038846	9.818649	-0.000896	0.000396	0.001858	0.283803	-0.257227	-0.954323	-0.288389	-0.504537	29.857417
17288	11923190	0.121573	0.048640	9.833855	-0.005689	0.000131	0.001626				-0.289206	-0.504517	29.857646
17291	11923215	0.109109	0.060451	9.830980	-0.011428	0.010780	-0.002679				-0.287984	-0.503617	29.856484
17295	11923240	0.103955	0.045563	9.822776	-0.006798	0.001748	-0.006303				-0.288950	-0.503371	29.855587
17298	11923265	0.124604	0.041903	9.824297	-0.004049	-0.008750	0.003588	0.283784	-0.256242	-0.954300	-0.289535	-0.504622	29.856111
17302	11923290	0.098725	0.032157	9.835131	0.002685	0.003323	0.000229				-0.289150	-0.504146	29.856145
17305	11923315	0.116111	0.050217	9.842052	0.012589	-0.008790	-0.000720				-0.285614	-0.507562	29.856265
17309	11923340	0.120254	0.045917	9.836599	-0.008340	0.004847	0.018264				-0.286832	-0.506854	29.858876
17312	11923365	0.083821	0.030683	9.843260	0.001395	0.001019	-0.002186	0.283746	-0.255754	-0.955278	-0.286629	-0.506710	29.858567
17316	11923390	0.115935	0.063537	9.837885	0.006132	-0.009674	-0.010546				-0.285737	-0.508103	29.857058
17319	11923415	0.122969	0.049879	9.832501	-0.008568	-0.005345	-0.012700				-0.284522	-0.508706	29.856759
17323	11923440	0.133715	0.042230	9.828481	0.007895	0.012907	-0.008012				-0.283381	-0.506863	29.855602
17326	11923465	0.116500	0.033820	9.821539	-0.000778	-0.007120	0.014508	0.282796	-0.255243	-0.954776	-0.283510	-0.507873	29.857689
17330	11923490	0.096992	0.049684	9.830938	-0.002189	0.016414	0.007580				-0.283834	-0.505516	29.858764
17333	11923515	0.116247	0.043183	9.828353	-0.002775	-0.000285	-0.008591				-0.280070	-0.511010	29.854926
17337	11923540	0.121630	0.036409	9.822932	-0.007990	0.011849	-0.005113				-0.281208	-0.509316	29.854185
17340	11923565	0.109578	0.031018	9.833838	-0.002797	0.002848	-0.010276	0.282346	-0.256712	-0.954813	-0.281596	-0.508915	29.852723
17344	11923590	0.104616	0.029361	9.831060	-0.013818	-0.022709	0.002210				-0.283578	-0.512166	29.853053
17347	11923615	0.123242	0.035081	9.829793	-0.012168	-0.011989	0.004783				-0.280733	-0.509968	29.854435
17351	11923640	0.113544	0.039099	9.826969	-0.004779	-0.003070	-0.010115				-0.281405	-0.510414	29.852991
17354	11923665	0.119100	0.033865	9.831148	0.002739	0.000867	0.015199	0.283272	-0.256733	-0.955799	-0.281032	-0.510279	29.855167
17358	11923690	0.117531	0.028280	9.844868	-0.019664	0.011517	0.002666				-0.283852	-0.508628	29.855541
17361	11923715	0.138192	0.044874	9.831240	-0.005147	-0.013903	0.021131				-0.280845	-0.517201	29.858516
17365	11923740	0.132615	0.030028	9.828509	-0.003906	0.004600	0.001332				-0.281407	-0.516541	29.858712
17368	11923765	0.140837	0.038013	9.805223	-0.008780	0.005974	0.007129	0.283258	-0.256735	-0.956293	-0.282673	-0.515681	29.859727
17372	11923790	0.119919	0.039217	9.839366	-0.008392	0.028567	-0.001474				-0.283873	-0.511590	29.859496
17375	11923815	0.120225	0.024644	9.843535	0.004655	0.022660	-0.007497				-0.281883	-0.512482	29.858991
17379	11923840	0.100063	0.021540	9.855742	0.005300	0.003707	0.003904				-0.281129	-0.511948	29.859552
17382	11923865	0.112355	0.010697	9.836668	-0.011860	0.018646	0.008573	0.281850	-0.255719	-0.954793	-0.282839	-0.509272	29.860758
17386	11923890	0.112309	0.031034	9.835222	-0.000957	0.008854	-0.010903				-0.282962	-0.508011	29.859192
17389	11923915	0.143410	0.040844	9.843638	-0.009885	-0.012855	0.012229				-0.282538	-0.508706	29.862273
17393	11923940	0.120384	0.043119	9.825641	-0.016285	-0.006030	0.015722				-0.284891	-0.509559	29.864534
17396	11923965	0.144575	0.046284	9.828545	-0.005844	0.001270	-0.004214	0.281835	-0.255721	-0.955288	-0.285723	-0.509380	29.863939
17400	11923990	0.109654	0.040129	9.814599	-0.017050	0.005139	0.006701				-0.288174	-0.508639	29.864900
17403	11924015	0.126724	0.055519	9.822901	0.001559	0.006104	-0.001380				-0.282689	-0.508938	29.862133
17407	11924040	0.137865	0.046225	9.824374	-0.003250	0.008279	0.004540				-0.283160	-0.507749	29.862774
17410	11924065	0.102854	0.030955	9.822822	0.005379	-0.001253	-0.006950	0.282350	-0.257699	-0.955332	-0.282381	-0.507934	29.861778
17414	11924090	0.132476	0.038000	9.828481	-0.009944	0.022911	0.012915				-0.283822	-0.504643	29.863614
17417	11924115	0.146937	0.075893	9.817484	-0.006934	0.003281	0.012691				-0.282909	-0.508405	29.864569
17421	11924140	0.135532	0.037922	9.799700	-0.006813	0.011274	-0.005512				-0.283878	-0.506794	29.863767
17424	11924165	0.132652	0.018089	9.864211	0.000578	-0.000323	-0.007327	0.282766	-0.256729	-0.956791	-0.283786	-0.506846	29.862730
17428	11924190	0.135124	0.053076	9.843542	0.000377	-0.014323	-0.001036				-0.283731	-0.508898	29.862575
17431	11924215	0.133741	0.040698	9.853161	-0.017437	-0.006078	-0.001645				-0.284790	-0.506119	29.864289
17435	11924240	0.126877	0.044824	9.838017	-0.003064	0.009742	-0.015798				-0.285209	-0.504735	29.862022
17438	11924265	0.132456	0.039317	9.853162	-0.015438	0.001830	-0.001270	0.282264	-0.256231	-0.957276	-0.287418	-0.504473	29.861842
17442	11924290	0.108196	0.024118	9.844814	-0.013453	0.011757	-0.018230				-0.289322	-0.502802	29.859224
17445	11924315	0.135306	0.044777	9.807910	-0.005247	0.002623	0.019462				-0.285208	-0.507828	29.864485
17449	11924340	0.120366	0.044392	9.810545	-0.013384	-0.002193	0.003949				-0.287130	-0.508139	29.865050
17452	11924365	0.148617	0.057366	9.820303	0.008373	0.010006	0.001386	0.282784	-0.257714	-0.956814	-0.285932	-0.506705	29.865237
17456	11924390	0.139184	0.053141	9.816138	0.011110	-0.000361	-0.013280				-0.284324	-0.506766	29.863332
17459	11924415	0.142002	0.030253	9.840921	0.005065	0.010867	-0.012144				-0.284162	-0.505177	29.860818
17463	11924440	0.121545	0.037876	9.848974	-0.010996	0.010218	0.000010				-0.285737	-0.503713	29.860809
17466	11924465	0.129880	0.043400	9.831187	-0.007603	-0.011893	0.007316	0.283721	-0.256746	-0.956786	-0.286835	-0.505411	29.861869
17470	11924490	0.129810	0.044687	9.840783	-0.014140	-0.013734	-0.010829				-0.288847	-0.507386	29.860329
17473	11924515	0.126802	0.057958	9.835235	-0.015832	0.003681	-0.001618				-0.284561	-0.506638	29.859689
17477	11924540	0.121046	0.016262	9.817501	-0.007613	-0.013141	0.006381				-0.285659	-0.508515	29.860618
17480	11924565	0.121881	0.028376	9.828444	-0.000507	0.002874	0.005151	0.282775	-0.257222	-0.956802	-0.285738	-0.508100	29.861355
17484	11924590	0.124285	0.063249	9.817364	-0.016209	-0.002596	-0.003745				-0.288056	-0.508474	29.860815
17487	11924615	0.120529	0.041881	9.818790	-0.012660	-0.008079	0.009274				-0.286644	-0.512917	29.861198
17491	11924640	0.110607	0.053908	9.814564	0.005832	0.014853	-0.006340				-0.285800	-0.510794	29.860273
17494	11924665	0.119105	0.040458	9.828382	-0.012486	-0.006448	-0.004089	0.281852	-0.258188	-0.956335	-0.287583	-0.511720	29.859698
17498	11924690	0.116031	0.050081	9.815998	0.013508	0.010204	-0.013000				-0.285632	-0.510268	29.857834
17501	11924715	0.119145	0.029768	9.821566	0.009127	0.006215	-0.011551				-0.285646	-0.512903	29.857529
17505	11924740	0.109373	0.036249	9.806384	-0.006761	0.026771	-0.009598				-0.286602	-0.509075	29.856143
17508	11924765	0.109553	0.057992	9.813174	0.007068	-0.006336	-0.006679	0.283276	-0.257720	-0.956317	-0.285581	-0.509987	29.855193
17512	11924790	0.112427	0.021611	9.831142	0.001058	0.000744	0.012925				-0.285446	-0.509871	29.857038
17515	11924815	0.113569	0.037612	9.813272	-0.003457	0.018080	0.009337				-0.281203	-0.507626	29.854587
17519	11924840	0.112276	0.027040	9.821521	-0.000136	0.013392	-0.002950				-0.281219	-0.505710	29.854169
17522	11924865	0.085623	0.063194	9.848654	0.006570	0.029489	0.000241	0.282766	-0.256729	-0.956791	-0.280278	-0.501486	29.854173
17526	11924890	0.086330	0.050873	9.834981	0.002521	0.002885	-0.017157				-0.279895	-0.501085	29.851718
17529	11924915	0.114351	0.060822	9.857079	-0.001374	0.007503	0.000300				-0.277408	-0.501982	29.856046
17533	11924940	0.110357	0.064656	9.833726	-0.001168	0.009671	-0.008026				-0.277565	-0.500602	29.854892
17536	11924965	0.109137	0.045847	9.848860	-0.002398	0.012551	0.003779	0.282733	-0.255747	-0.957262	-0.277913	-0.498802	29.855426
17540	11924990	0.117062	0.051261	9.844801	-0.008614	0.025411	-0.013740				-0.279129	-0.495172	29.853438
17543	11925015	0.120380	0.043128	9.822894	-0.008099	-0.000589	-0.001647				-0.275755	-0.500171	29.852733
17547	11925040	0.122845	0.048766	9.831116	-0.001606	0.008006	-0.003189				-0.275981	-0.499026	29.852259
17550	11925065	0.109085	0.052591	9.847470	-0.001054	0.008078	-0.012517	0.282791	-0.255738	-0.955283	-0.276116	-0.497878	29.850460
17554	11925090	0.110920	0.040507	9.818723	0.004235	0.005461	-0.009853				-0.275497	-0.497102	29.849048
17557	11925115	0.110697	0.035016	9.829712	-0.000021	0.021796	-0.016727				-0.274381	-0.492821	29.846082
17561	11925140	0.102441	0.060438	9.825452	-0.003158	0.003465	0.003271				-0.274837	-0.492322	29.846544
17564	11925165	0.135374	0.042092	9.820262	-0.006270	-0.009771	-0.012024	0.283788	-0.257229	-0.954818	-0.275721	-0.493730	29.844838
17568	11925190	0.115062	0.031335	9.828384	0.015195	0.009391	-0.009653				-0.273532	-0.492392	29.843449
17571	11925215	0.110441	0.052253	9.828282	-0.016084	0.017519	0.003567				-0.274476	-0.492125	29.843934
17575	11925240	0.141945	0.055788	9.831230	-0.003050	-0.003591	-0.019769				-0.274888	-0.492653	29.841100
17578	11925265	0.121895	0.044711	9.816052	0.010397	-0.010808	0.009157	0.282813	-0.257709	-0.955824	-0.273411	-0.494195	29.842432
17582	11925290	0.113815	0.018913	9.822932	0.006759	0.011404	-0.005449				-0.272436	-0.492565	29.841634
17585	11925315	0.109345	0.048459	9.843373	-0.006689	-0.005640	-0.013582				-0.269229	-0.495355	29.839114
17589	11925340	0.128391	0.040618	9.822957	-0.006451	0.011782	-0.003174				-0.270150	-0.493670	29.838654
17592	11925365	0.120122	0.043374	9.844841	0.001979	0.004841	0.004388	0.283233	-0.257727	-0.957801	-0.269872	-0.492973	29.839281
17596	11925390	0.124471	0.050081	9.837987	-0.003128	-0.014742	-0.002901				-0.270316	-0.495087	29.838871
17599	11925415	0.139472	0.031516	9.835407	0.005275	-0.007376	0.004415				-0.265212	-0.494078	29.839125
17603	11925440	0.125363	0.051395	9.847595	-0.013699	0.002076	-0.003307				-0.267170	-0.493783	29.838646
17606	11925465	0.133808	0.047805	9.847656	0.003397	-0.006130	-0.006044	0.283701	-0.257243	-0.957787	-0.266676	-0.494665	29.837790
17610	11925490	0.107818	0.045753	9.847485	-0.011060	0.009508	0.004031				-0.268266	-0.493301	29.838364
17613	11925515	0.131218	0.043447	9.829829	0.005603	-0.003195	-0.020029				-0.263360	-0.498931	29.834527
17617	11925540	0.118938	0.043259	9.828377	-0.003795	-0.001852	-0.006494				-0.263895	-0.499201	29.833591
17620	11925565	0.114799	0.033540	9.833862	-0.017160	0.020124	0.001281	0.283195	-0.257239	-0.958779	-0.266355	-0.496317	29.833756
17624	11925590	0.125719	0.055537	9.816037	0.000554	-0.003859	0.014625				-0.266293	-0.496860	29.835859
17627	11925615	0.134172	0.032511	9.820282	-0.012136	-0.005941	-0.006837				-0.266739	-0.497489	29.833342
17631	11925640	0.121925	0.035164	9.810582	-0.000639	0.010291	-0.004674				-0.266825	-0.496018	29.832659
17634	11925665	0.113388	0.055482	9.829669	0.011121	0.000715	0.010988	0.282732	-0.257229	-0.958287	-0.265246	-0.495908	29.834239
17638	11925690	0.120131	0.037957	9.829771	0.005682	0.019500	0.007205				-0.264440	-0.493111	29.835251
17641	11925715	0.117605	0.039133	9.839342	-0.007015	-0.005083	-0.006200				-0.263248	-0.498864	29.835457
17645	11925740	0.111833	0.038041	9.848915	0.009260	0.021593	-0.021878				-0.261894	-0.495785	29.832316
17648	11925765	0.113255	0.064601	9.818665	-0.009759	0.004309	-0.007629	0.282245	-0.256728	-0.958278	-0.263282	-0.495173	29.831216
17652	11925790	0.124231	0.043159	9.839378	-0.016102	0.008662	0.012119				-0.265604	-0.493924	29.832942
17655	11925815	0.133857	0.040599	9.827106	-0.021768	0.006755	0.014572				-0.262680	-0.493077	29.834304
17659	11925840	0.116428	0.036340	9.816034	-0.008419	0.000112	-0.009367				-0.263874	-0.493067	29.832970
17662	11925865	0.105372	0.044290	9.833766	-0.008231	-0.002618	-0.012714	0.282241	-0.255741	-0.957759	-0.265038	-0.493450	29.831151
17666	11925890	0.116274	0.033537	9.836607	-0.020149	0.011678	-0.014775				-0.267906	-0.491787	29.829023
17669	11925915	0.121687	0.050084	9.840712	-0.005274	-0.012563	-0.010006				-0.265169	-0.495686	29.831450
17673	11925940	0.113106	0.044535	9.857136	-0.002749	0.018588	-0.002410				-0.265560	-0.493025	29.831091
17676	11925965	0.095919	0.042976	9.843305	0.001106	-0.010020	0.010474	0.284630	-0.255782	-0.957748	-0.265414	-0.494453	29.832595
17680	11925990	0.113126	0.052364	9.847497	-0.025345	0.006692	0.000902				-0.269046	-0.493494	29.832718
17683	11926015	0.101457	0.029347	9.836510	-0.014351	0.007065	-0.020158				-0.267379	-0.493469	29.827553
17687	11926040	0.113231	0.049912	9.822832	-0.003792	0.014025	-0.009777				-0.267910	-0.491467	29.826146
17690	11926065	0.118852	0.057981	9.824208	-0.004618	-0.007959	0.008553	0.283669	-0.256260	-0.958259	-0.268582	-0.492601	29.827386
17694	11926090	0.119781	0.063192	9.835161	-0.017533	0.015889	0.015248				-0.271112	-0.490315	29.829560
17697	11926115	0.076961	0.040176	9.836329	0.007935	0.005619	0.007826				-0.268153	-0.492507	29.828683
17701	11926140	0.097973	0.017316	9.818717	0.005232	-0.014624	-0.012878				-0.267388	-0.494611	29.826835
17704	11926165	0.099127	0.011832	9.833823	-0.009696	-0.004305	-0.002168	0.281317	-0.258188	-0.958317	-0.268774	-0.495229	29.826527
17708	11926190	0.102915	0.010778	9.846206	-0.004266	0.003292	-0.019997				-0.269360	-0.494771	29.823668
17711	11926215	0.103112	0.017521	9.837955	0.006706	0.000639	0.001755				-0.267413	-0.494523	29.829029
17715	11926240	0.115160	0.022739	9.833893	-0.018658	0.007121	0.000532				-0.270086	-0.493503	29.829104
17718	11926265	0.121796	0.033999	9.827044	0.002347	0.004174	0.010695	0.281785	-0.257704	-0.958303	-0.269763	-0.492898	29.830635
17722	11926290	0.102469	0.040509	9.844729	0.009516	0.016378	0.002024				-0.268403	-0.490551	29.830926
17725	11926315	0.094590	0.029246	9.835121	-0.001660	0.013152	-0.010855				-0.267642	-0.492235	29.826186
17729	11926340	0.114799	0.044341	9.839307	-0.023682	0.004487	-0.020568				-0.271009	-0.491607	29.823248
17732	11926365	0.112301	0.049781	9.822816	-0.010258	-0.006083	-0.003831	0.282690	-0.255754	-0.958747	-0.272474	-0.492480	29.822703
17736	11926390	0.113621	0.036247	9.839327	-0.013673	-0.002034	0.006707				-0.274440	-0.492767	29.823655
17739	11926415	0.105756	0.029528	9.828316	-0.009876	-0.006753	0.007038				-0.269605	-0.492766	29.823923
17743	11926440	0.103693	0.038955	9.833778	-0.000735	0.027990	0.009957				-0.269723	-0.488750	29.825328
17746	11926465	0.114488	0.045990	9.835196	0.003830	0.020856	-0.001515	0.281262	-0.255234	-0.958247	-0.269172	-0.485764	29.825095
17750	11926490	0.097284	0.034714	9.850183	-0.018843	0.007287	-0.021747				-0.271845	-0.484735	29.821976
17753	11926515	0.112250	0.041755	9.828335	-0.004742	-0.001533	0.003500				-0.268892	-0.487937	29.826545
17757	11926540	0.128437	0.030046	9.835337	0.000128	0.014427	-0.025959				-0.268842	-0.485888	29.822819
17760	11926565	0.132700	0.042011	9.824358	-0.011180	-0.009832	-0.007567	0.282236	-0.256235	-0.958266	-0.270434	-0.487301	29.821743
17764	11926590	0.097605	0.030642	9.821409	-0.006348	-0.002524	0.001428				-0.271345	-0.487662	29.821952
17767	11926615	0.109628	0.024218	9.840712	-0.007880	0.009520	-0.013760				-0.271288	-0.486586	29.816657
17771	11926640	0.120733	0.024250	9.839414	-0.025937	-0.010842	-0.011446				-0.274989	-0.488147	29.815029
17774	11926665	0.125973	0.031132	9.831201	-0.010106	-0.007199	0.005300	0.283191	-0.256252	-0.958261	-0.276444	-0.489175	29.815790
17778	11926690	0.124915	0.032413	9.795532	-0.007677	-0.008078	0.009045				-0.277554	-0.490325	29.817104
17781	11926715	0.124811	0.029879	9.817486	0.004318	-0.003836	-0.002980				-0.273803	-0.491754	29.815536
17785	11926740	0.125835	0.033861	9.832568	-0.013432	0.000076	-0.007060				-0.275718	-0.491748	29.814531
17788	11926765	0.132833	0.032338	9.812052	-0.025542	-0.002308	0.009857	0.282732	-0.257229	-0.958287	-0.279389	-0.492072	29.815938
17792	11926790	0.139296	0.046105	9.820269	-0.010060	0.009252	0.008601				-0.280840	-0.490741	29.817157
17795	11926815	0.121953	0.040137	9.832507	-0.042246	-0.012444	-0.003037				-0.283619	-0.496675	29.816861
17799	11926840	0.121922	0.009675	9.861416	-0.011423	-0.002205	-0.007460				-0.285246	-0.496997	29.815788
17802	11926865	0.127247	0.005400	9.850494	-0.030367	0.014149	-0.007211	0.280290	-0.256702	-0.959772	-0.289586	-0.494975	29.814743
17806	11926890	0.105494	0.017318	9.855786	-0.020508	0.006762	-0.004020				-0.292519	-0.494010	29.814162
17809	11926915	0.116236	0.037688	9.831116	-0.016859	0.003898	0.010927				-0.290539	-0.494745	29.817572
17813	11926940	0.130400	0.000497	9.854646	0.003830	0.003010	0.009491				-0.290002	-0.494307	29.818927
17816	11926965	0.147425	0.015654	9.857466	0.003844	0.004648	0.010832	0.280730	-0.256222	-0.960747	-0.289465	-0.493633	29.820485
17820	11926990	0.130659	0.045058	9.850395	0.014964	0.021110	0.005810				-0.287328	-0.490605	29.821299
17823	11927015	0.125407	0.040608	9.842135	-0.012235	0.019892	-0.006054				-0.291215	-0.491490	29.818992
17827	11927040	0.120336	0.028588	9.844893	0.008336	0.000733	0.001484				-0.290023	-0.491384	29.819201
17830	11927065	0.128905	0.017865	9.831266	0.002959	-0.003071	-0.002366	0.281714	-0.256234	-0.959753	-0.289596	-0.491826	29.818860
17834	11927090	0.129537	0.045654	9.813351	-0.029567	0.028475	-0.002167				-0.293829	-0.487749	29.818531
17837	11927115	0.139826	0.023105	9.818977	-0.026008	-0.004843	-0.009447				-0.288248	-0.491165	29.818315
17841	11927140	0.112788	0.013127	9.810593	-0.023127	0.003000	0.011970				-0.291576	-0.490727	29.820029
17844	11927165	0.120961	0.008134	9.824376	-0.018455	-0.003625	0.006936	0.281682	-0.255252	-0.960225	-0.294228	-0.491241	29.821030
17848	11927190	0.132726	0.037913	9.822997	-0.009690	-0.011401	-0.012068				-0.295601	-0.492883	29.819301
17851	11927215	0.108253	0.036218	9.818706	-0.013125	0.006898	0.013715				-0.297432	-0.487833	29.822603
17855	11927240	0.136418	0.054173	9.814736	-0.010632	0.006239	-0.009438				-0.298943	-0.486946	29.821240
17858	11927265	0.124818	0.041652	9.817435	-0.027491	-0.021887	-0.004761	0.281215	-0.254254	-0.959214	-0.302875	-0.490085	29.820570
17862	11927290	0.133630	0.054030	9.805120	-0.017971	0.015174	-0.011514				-0.305435	-0.487920	29.818910
17865	11927315	0.108724	0.023898	9.814646	-0.012267	-0.017674	0.003324				-0.303085	-0.495922	29.819313
17869	11927340	0.107020	0.028015	9.844786	-0.026289	-0.005381	-0.013812				-0.306834	-0.496703	29.817353
17872	11927365	0.123013	0.044653	9.839368	-0.006746	-0.004424	-0.005597	0.280741	-0.255233	-0.959734	-0.307793	-0.497342	29.816549
17876	11927390	0.101084	0.034747	9.840626	-0.008997	0.019541	-0.015937				-0.309062	-0.494555	29.814247
17879	11927415	0.124532	0.036294	9.824308	-0.023499	0.003588	-0.017813				-0.310771	-0.496343	29.812355
17883	11927440	0.105445	0.015764	9.855799	-0.028048	0.009024	0.007612				-0.314798	-0.495045	29.813437
17886	11927465	0.113483	0.036230	9.831100	-0.018927	0.012013	-0.008747	0.279269	-0.254720	-0.960720	-0.317499	-0.493331	29.812187
17890	11927490	0.113371	0.050839	9.846136	-0.030705	-0.003399	-0.023189				-0.321868	-0.493836	29.808865
17893	11927515	0.109291	0.045448	9.832408	-0.033897	0.012149	0.005417				-0.320705	-0.490465	29.810699
17897	11927540	0.110718	0.044496	9.842023	-0.006348	0.006750	0.011738				-0.321629	-0.489488	29.812375
17900	11927565	0.106561	0.048418	9.844733	-0.006500	-0.001454	0.000554	0.280699	-0.253758	-0.960195	-0.322561	-0.489696	29.812453
17904	11927590	0.106828	0.034767	9.826938	-0.012131	0.006388	0.002976				-0.324302	-0.488779	29.812873
17907	11927615	0.112407	0.028084	9.825633	-0.023712	0.008027	-0.008038				-0.327391	-0.490722	29.807932
17911	11927640	0.115083	0.040248	9.820126	-0.011197	-0.010093	0.007385				-0.329004	-0.492161	29.808992
17914	11927665	0.112448	0.033430	9.846189	-0.024623	-0.018582	-0.005659	0.280741	-0.255233	-0.959734	-0.332524	-0.494828	29.808209
17918	11927690	0.109637	0.028246	9.835215	-0.003903	0.002123	-0.021406				-0.333057	-0.494541	29.805138
17921	11927715	0.105638	0.026590	9.813248	-0.017336	0.012563	-0.008221				-0.333812	-0.493780	29.807467
17925	11927740	0.120223	0.052651	9.826981	-0.006457	-0.009009	0.001058				-0.334738	-0.495069	29.807631
17928	11927765	0.138297	0.034076	9.821671	-0.007081	-0.003743	-0.002575	0.279277	-0.256694	-0.961756	-0.335749	-0.495608	29.807260
17932	11927790	0.113855	0.036377	9.820135	0.000618	-0.013793	-0.010642				-0.335648	-0.497592	29.805745
17935	11927815	0.102088	0.027764	9.800873	-0.033040	-0.018179	-0.020111				-0.338063	-0.499604	29.801379
17939	11927840	0.109555	0.050878	9.804972	-0.016600	-0.001062	-0.004292				-0.340436	-0.499760	29.800763
17942	11927865	0.127248	0.045770	9.816080	-0.026295	-0.008057	-0.022121	0.280708	-0.254250	-0.960206	-0.344174	-0.500933	29.797597
17946	11927890	0.078406	0.052919	9.807493	-0.025988	-0.009365	-0.007781				-0.347887	-0.502281	29.796497
17949	11927915	0.135565	0.041654	9.822997	-0.032419	-0.020128	0.002174				-0.345792	-0.507459	29.796281
17953	11927940	0.127351	0.037979	9.828442	-0.013226	-0.006309	-0.005224				-0.347680	-0.508367	29.795528
17956	11927965	0.155869	0.035537	9.828647	-0.022554	-0.015438	-0.016202	0.282094	-0.253295	-0.961166	-0.350890	-0.510592	29.793226
17960	11927990	0.124421	0.034961	9.833917	-0.023916	0.003061	-0.003457				-0.354311	-0.510157	29.792732
17963	11928015	0.143573	0.031439	9.856005	-0.024298	-0.018300	-0.001763				-0.355153	-0.516223	29.791854
17967	11928040	0.128923	0.021512	9.832623	-0.030491	-0.019324	0.003633				-0.359526	-0.518988	29.792395
17970	11928065	0.119100	0.021382	9.850385	-0.033201	0.000829	0.010224	0.281596	-0.253784	-0.962169	-0.364294	-0.518860	29.793854
17974	11928090	0.100349	0.017060	9.862611	-0.040242	-0.016887	-0.014912				-0.370039	-0.521293	29.791736
17977	11928115	0.135511	0.015013	9.843659	-0.025335	-0.004372	-0.024082				-0.368385	-0.520733	29.789888
17981	11928140	0.131901	0.008452	9.849137	-0.012124	-0.020173	-0.002423				-0.370119	-0.523625	29.789557
17984	11928165	0.112329	0.010766	9.858611	-0.016300	0.008298	-0.015256	0.280627	-0.253769	-0.962669	-0.372434	-0.522450	29.787357
17988	11928190	0.143859	0.007051	9.828657	-0.029159	0.000119	0.012824				-0.376627	-0.522421	29.789200
17991	11928215	0.140897	0.027302	9.812103	-0.013749	0.008133	-0.000566				-0.377219	-0.525378	29.785189
17995	11928240	0.111497	-0.000097	9.853140	-0.017959	-0.009458	0.002664				-0.379795	-0.526730	29.785566
17998	11928265	0.133078	0.032335	9.813412	-0.030924	-0.020838	-0.002192	0.279633	-0.253265	-0.963652	-0.384222	-0.529717	29.785276
18002	11928290	0.156217	0.019336	9.799893	-0.021917	-0.000460	-0.001156				-0.387360	-0.529784	29.785109
18005	11928315	0.146904	-0.003529	9.839686	-0.015618	-0.008580	-0.006330				-0.387718	-0.532581	29.786202
18009	11928340	0.123935	-0.002387	9.839521	-0.000618	-0.023691	-0.000262				-0.387806	-0.535975	29.786186
18012	11928365	0.138937	-0.027970	9.858913	-0.017673	-0.010520	-0.026916	0.280616	-0.254759	-0.963682	-0.390301	-0.537508	29.782332
18016	11928390	0.148130	-0.007412	9.845191	-0.004725	0.000958	0.000019				-0.390978	-0.537371	29.782344
18019	11928415	0.142423	0.009991	9.861548	-0.013399	-0.014669	-0.009412				-0.392421	-0.541345	29.780892
18023	11928440	0.122088	-0.000907	9.865570	0.002989	-0.001198	0.011517				-0.392008	-0.541506	29.782551
18026	11928465	0.127815	-0.003781	9.821722	-0.001802	0.009747	-0.019217	0.280607	-0.254266	-0.963670	-0.392240	-0.540128	29.779782
18030	11928490	0.142129	0.019565	9.847812	0.003658	0.010568	-0.005631				-0.391709	-0.538620	29.778962
18033	11928515	0.132110	-0.015767	9.835500	0.004351	-0.000317	-0.013308				-0.389353	-0.541709	29.777849
18037	11928540	0.139629	0.009954	9.831366	0.005449	0.007309	-0.008240				-0.388561	-0.540670	29.776660
18040	11928565	0.111146	0.002706	9.862722	-0.019926	0.004773	-0.007838	0.280658	-0.256234	-0.963222	-0.391404	-0.539994	29.775520
18044	11928590	0.138194	0.007220	9.843704	-0.010990	0.009906	-0.011861				-0.392962	-0.538587	29.773809
18047	11928615	0.126026	0.008546	9.844989	0.003280	0.001515	-0.003451				-0.387476	-0.539931	29.774298
18051	11928640	0.135727	0.013753	9.820344	-0.010164	0.003327	-0.004327				-0.388926	-0.539458	29.773684
18054	11928665	0.125994	0.035121	9.822959	-0.009653	-0.002822	-0.019340	0.281152	-0.254758	-0.961700	-0.390283	-0.539882	29.770913
18058	11928690	0.107657	0.011916	9.811929	-0.008281	-0.012115	-0.006437				-0.391460	-0.541623	29.770004
18061	11928715	0.106998	0.025396	9.824224	-0.010738	0.005433	-0.023396				-0.390425	-0.539377	29.765741
18065	11928740	0.109864	0.026695	9.816011	-0.012289	0.005524	-0.006676				-0.392176	-0.538593	29.764774
18068	11928765	0.102346	-0.000203	9.821540	-0.001718	-0.023726	-0.023074	0.281099	-0.254272	-0.963173	-0.392391	-0.542013	29.761491
18072	11928790	0.115426	0.025536	9.827030	-0.014365	-0.021663	-0.007378				-0.394439	-0.545124	29.760446
18075	11928815	0.103044	0.024025	9.815975	-0.010429	0.008297	0.005978				-0.392149	-0.544217	29.761427
18079	11928840	0.138221	0.042190	9.817537	-0.008088	-0.012739	0.005579				-0.393315	-0.546036	29.762241
18082	11928865	0.112820	0.028179	9.811922	-0.002511	-0.013603	0.001785	0.280138	-0.254750	-0.963684	-0.393677	-0.547983	29.762510
18086	11928890	0.088311	0.028963	9.817235	-0.013976	-0.014354	0.006336				-0.395688	-0.550033	29.763441
18089	11928915	0.120919	0.030897	9.811955	-0.016099	-0.024813	-0.016682				-0.395087	-0.556319	29.759206
18093	11928940	0.088190	0.034401	9.808998	-0.014737	-0.010902	-0.004603				-0.397191	-0.557885	29.758556
18096	11928965	0.108688	0.021311	9.810538	-0.013174	0.001276	0.007699	0.280118	-0.255247	-0.964686	-0.399089	-0.557695	29.759653
18100	11928990	0.120356	0.041587	9.829762	-0.026424	-0.002545	-0.003292				-0.402869	-0.558063	29.759184
18103	11929015	0.095187	0.018514	9.829656	-0.017269	-0.013769	-0.006391				-0.400641	-0.563376	29.762280
18107	11929040	0.083861	0.039762	9.839110	-0.021721	-0.011714	0.009321				-0.403766	-0.565044	29.763630
18110	11929065	0.119635	0.014678	9.840800	-0.037923	-0.020687	-0.001556	0.279192	-0.255226	-0.963700	-0.409196	-0.568009	29.763428
18114	11929090	0.130474	0.005610	9.827207	-0.006810	-0.006540	-0.005791				-0.410163	-0.568951	29.762602
18117	11929115	0.115179	0.013682	9.861350	-0.002815	0.001228	-0.002819				-0.410451	-0.569854	29.765145
18121	11929140	0.131887	-0.000939	9.835461	-0.007881	-0.010639	-0.017910				-0.411555	-0.571396	29.762604
18124	11929165	0.142536	-0.001004	9.853361	-0.013596	-0.003771	-0.011864	0.279155	-0.253257	-0.963654	-0.413485	-0.571948	29.760896
18128	11929190	0.101866	0.000028	9.862683	-0.001927	-0.007787	0.008948				-0.413774	-0.573055	29.762186
18131	11929215	0.115849	-0.014937	9.823054	-0.017869	-0.000028	-0.014076				-0.414069	-0.574558	29.760530
18135	11929240	0.140064	0.003031	9.825895	-0.010911	-0.004314	-0.008322				-0.415620	-0.575185	29.759346
18138	11929265	0.163185	-0.013880	9.819261	0.002392	0.008504	0.008346	0.278654	-0.252758	-0.964140	-0.415289	-0.573958	29.760524
18142	11929290	0.144280	-0.007715	9.820479	-0.014913	0.001910	-0.002210				-0.417422	-0.573687	29.760207
18145	11929315	0.109979	0.008102	9.829802	0.000806	0.000156	0.001861				-0.412544	-0.576688	29.764614
18149	11929340	0.161803	-0.012547	9.813762	0.001520	0.012897	-0.009446				-0.412313	-0.574851	29.763245
18152	11929365	0.153487	0.021022	9.834157	0.003970	-0.018616	0.006408	0.278185	-0.253243	-0.964154	-0.411753	-0.577511	29.764172
18156	11929390	0.146773	-0.000609	9.828708	0.009464	-0.006159	-0.012575				-0.410380	-0.578406	29.762381
18159	11929415	0.153662	-0.012640	9.817813	0.006127	0.012128	-0.016238				-0.410065	-0.577167	29.764165
18163	11929440	0.157735	-0.006007	9.817827	0.001442	-0.000633	-0.003424				-0.409854	-0.577261	29.763676
18166	11929465	0.156483	-0.007437	9.830159	-0.020941	-0.000609	0.006220	0.277717	-0.253727	-0.964168	-0.412862	-0.577342	29.764573
18170	11929490	0.119636	-0.003726	9.839499	0.013889	-0.000873	0.008376				-0.410885	-0.577459	29.765777
18173	11929515	0.161807	0.002211	9.837013	-0.003892	-0.014484	-0.013618				-0.409108	-0.581975	29.763440
18177	11929540	0.153180	0.018086	9.839652	-0.017786	0.007667	0.005302				-0.411663	-0.580871	29.764192
18180	11929565	0.154308	0.025293	9.849249	0.010574	-0.002563	0.002706	0.278653	-0.254240	-0.965164	-0.410152	-0.581235	29.764574
18184	11929590	0.153612	-0.001971	9.836987	-0.002666	-0.007693	-0.019954				-0.410505	-0.582358	29.761731
18187	11929615	0.153384	0.003447	9.828740	-0.003870	0.000361	-0.003809				-0.405806	-0.582954	29.767775
18191	11929640	0.151869	0.006039	9.852034	-0.011757	-0.001299	-0.012080				-0.407472	-0.583152	29.766039
18194	11929665	0.154163	0.029043	9.845120	-0.010221	0.014445	-0.013484	0.279132	-0.252767	-0.964137	-0.408916	-0.581097	29.764088
18198	11929690	0.142669	0.006082	9.834136	0.001320	0.003164	0.000314				-0.408728	-0.580643	29.764137
18201	11929715	0.135984	-0.005312	9.836873	-0.022386	-0.010966	-0.003146				-0.409554	-0.585442	29.763286
18205	11929740	0.151626	0.020952	9.828673	0.000812	0.012249	0.019209				-0.409465	-0.583668	29.766024
18208	11929765	0.128844	0.036660	9.810634	-0.003392	-0.013436	0.008039	0.279622	-0.254254	-0.964665	-0.409963	-0.585585	29.767201
18212	11929790	0.138182	0.026970	9.810735	-0.032242	0.011232	0.025880				-0.414619	-0.583949	29.770902
18215	11929815	0.127588	0.024354	9.818888	-0.015876	-0.004525	0.012298				-0.409149	-0.587418	29.771623
18219	11929840	0.124923	0.028517	9.818851	-0.001164	-0.017168	-0.002764				-0.409312	-0.589880	29.771245
18222	11929865	0.120493	0.046075	9.817410	0.013982	-0.015193	-0.010835	0.280077	-0.253773	-0.965146	-0.407294	-0.592067	29.769716
18226	11929890	0.135413	0.020840	9.824458	0.012638	0.009567	-0.006136				-0.405474	-0.590703	29.768833
18229	11929915	0.118389	0.005507	9.824380	0.002974	-0.008109	0.007647				-0.408617	-0.593235	29.777015
18233	11929940	0.143579	0.034247	9.831318	-0.005211	-0.010392	-0.018725				-0.409335	-0.594742	29.774339
18236	11929965	0.115318	0.008429	9.849036	0.011110	0.003114	-0.005381	0.279570	-0.253769	-0.966138	-0.407736	-0.594302	29.773582
18240	11929990	0.132308	0.036521	9.851805	-0.020370	0.003222	-0.006627				-0.410644	-0.593847	29.772622
18243	11930015	0.113897	0.008118	9.853127	-0.016631	0.003450	0.005034				-0.405388	-0.594087	29.775975
18247	11930040	0.127348	0.028501	9.831220	-0.015318	-0.004718	0.002839				-0.407587	-0.594760	29.776384
18250	11930065	0.115080	0.037708	9.836594	-0.005230	-0.008312	-0.000161	0.278117	-0.254241	-0.967146	-0.408336	-0.595950	29.776368
18254	11930090	0.127180	0.032680	9.831208	-0.005424	-0.000539	-0.002259				-0.409109	-0.596030	29.776055
18257	11930115	0.127263	0.043249	9.825686	-0.005126	-0.009291	-0.001702				-0.409057	-0.598474	29.777781
18261	11930140	0.121894	0.024376	9.832571	-0.011703	0.012468	-0.015689				-0.410710	-0.596704	29.775527
18264	11930165	0.105818	0.025464	9.832451	-0.007202	-0.013165	0.003895	0.277142	-0.254721	-0.968152	-0.411747	-0.598586	29.776109
18268	11930190	0.143395	0.035570	9.829946	-0.005704	0.002988	-0.004077				-0.412558	-0.598162	29.775525
18271	11930215	0.108250	0.032176	9.839315	-0.009698	-0.001803	-0.005925				-0.410981	-0.600576	29.777557
18275	11930240	0.109940	0.038857	9.818723	-0.012168	-0.022238	0.018306				-0.412751	-0.603742	29.780206
18278	11930265	0.128699	0.032504	9.827104	-0.005189	0.005838	0.006507	0.277616	-0.253743	-0.967632	-0.413504	-0.602899	29.781132
18282	11930290	0.127558	0.018867	9.824389	-0.019400	-0.003529	0.013384				-0.416303	-0.603391	29.783048
18285	11930315	0.116876	0.012143	9.824350	-0.015751	-0.010090	-0.002575				-0.413646	-0.605567	29.782674
18289	11930340	0.118155	0.001241	9.838093	-0.024177	0.002137	0.001046				-0.417111	-0.605260	29.782830
18292	11930365	0.135589	0.004296	9.847805	-0.026123	0.008228	-0.010829	0.279546	-0.253279	-0.966621	-0.420837	-0.604092	29.781274
18296	11930390	0.123729	0.009496	9.836735	-0.020438	-0.016335	-0.011046				-0.423748	-0.606444	29.779713
18299	11930415	0.124787	0.004142	9.849109	-0.023572	0.004174	-0.006606				-0.424081	-0.605635	29.784695
18303	11930440	0.113683	0.017496	9.836642	-0.016166	0.015070	-0.001116				-0.426395	-0.603478	29.784522
18306	11930465	0.138131	0.015384	9.856020	-0.001881	0.012687	0.003389	0.278122	-0.253746	-0.966640	-0.426669	-0.601657	29.784988
18310	11930490	0.124937	0.000322	9.855984	-0.001192	-0.003375	-0.018501				-0.426812	-0.602160	29.782337
18313	11930515	0.131454	0.027013	9.831254	-0.023372	-0.009067	-0.007704				-0.429996	-0.606956	29.784979
18317	11930540	0.136630	0.027315	9.842258	-0.012328	0.013113	-0.009844				-0.431747	-0.605088	29.783543
18320	11930565	0.145412	-0.002032	9.846526	-0.009170	-0.018185	-0.014718	0.277639	-0.254233	-0.967148	-0.433038	-0.607709	29.781458
18324	11930590	0.172994	0.042631	9.828750	-0.017476	0.017552	-0.005464				-0.435533	-0.605201	29.780655
18327	11930615	0.146680	-0.003316	9.827338	0.000851	0.012666	-0.002329				-0.430134	-0.608040	29.781064
18331	11930640	0.139720	0.001801	9.825903	-0.001854	0.016719	0.003979				-0.430406	-0.605641	29.781619
18334	11930665	0.131981	-0.006414	9.823137	0.004038	-0.000893	-0.005190	0.278595	-0.254249	-0.967144	-0.429819	-0.605774	29.780875
18338	11930690	0.145623	-0.011572	9.847922	-0.017835	-0.012943	-0.004622				-0.432367	-0.607633	29.780233
18341	11930715	0.142347	0.003310	9.839632	-0.000483	0.002474	0.010723				-0.429479	-0.604540	29.784133
18345	11930740	0.154569	0.025173	9.835538	0.009710	-0.007382	-0.005059				-0.428081	-0.605603	29.783417
18348	11930765	0.154825	0.000817	9.831490	-0.001474	0.002818	-0.001612	0.279114	-0.255732	-0.966681	-0.428290	-0.605201	29.783186
18352	11930790	0.157757	0.003288	9.826014	-0.015514	-0.006105	0.006886				-0.430522	-0.606068	29.784190
18355	11930815	0.165566	0.009281	9.828794	0.011651	0.000140	-0.015825				-0.426225	-0.608697	29.782875
18359	11930840	0.147214	-0.019709	9.830143	-0.009468	-0.012468	-0.006348				-0.427571	-0.610490	29.781978
18362	11930865	0.160289	0.002086	9.819181	-0.012594	0.003141	-0.012960	0.278164	-0.255221	-0.966179	-0.429356	-0.610054	29.780116
18366	11930890	0.145011	0.010170	9.835510	0.001842	0.010711	0.006524				-0.429102	-0.608513	29.781038
18369	11930915	0.158709	-0.007444	9.841159	-0.015938	0.022569	-0.012332				-0.430934	-0.609343	29.781930
18373	11930940	0.127843	-0.013217	9.820390	-0.003099	0.018078	-0.004679				-0.431371	-0.606759	29.781235
18376	11930965	0.140077	-0.011523	9.825954	0.003125	0.010408	0.000750	0.278595	-0.254249	-0.967144	-0.430924	-0.605267	29.781338
18380	11930990	0.142472	-0.002039	9.824571	0.008430	0.009258	0.012878				-0.429736	-0.603927	29.783168
18383	11931015	0.150795	-0.010149	9.836998	-0.011626	0.022015	-0.020939				-0.429386	-0.602236	29.781697
18387	11931040	0.169539	0.013176	9.834297	-0.006287	0.001955	-0.007081				-0.430276	-0.601963	29.780697
18390	11931065	0.161459	0.007586	9.828777	0.001298	0.004759	-0.005247	0.277630	-0.253740	-0.967137	-0.430082	-0.601287	29.779933
18394	11931090	0.131819	-0.010679	9.823157	-0.015977	0.021712	-0.002946				-0.432366	-0.598180	29.779488
18397	11931115	0.139682	0.012784	9.840965	0.002493	-0.001174	-0.026304				-0.425580	-0.601785	29.780613
18401	11931140	0.125172	-0.022562	9.849199	-0.000232	0.008123	0.004803				-0.425621	-0.600617	29.781296
18404	11931165	0.134567	-0.003388	9.831376	0.012970	0.004928	0.014672	0.277648	-0.254725	-0.967160	-0.423785	-0.599895	29.783391
18408	11931190	0.141540	-0.008774	9.827316	0.011446	-0.002038	0.003371				-0.422151	-0.600184	29.783881
18411	11931215	0.123693	-0.003734	9.839523	-0.002797	-0.001764	-0.001732				-0.423552	-0.598684	29.785309
18415	11931240	0.153516	0.003515	9.830115	0.002871	-0.004768	0.000674				-0.423142	-0.599366	29.785408
18418	11931265	0.142383	0.004552	9.828657	-0.001752	0.017741	0.001629	0.278131	-0.254239	-0.966651	-0.423395	-0.596823	29.785620
18422	11931290	0.120934	0.012172	9.831229	-0.016257	-0.008586	-0.001772				-0.425721	-0.598055	29.785374
18425	11931315	0.122271	0.004222	9.825769	-0.000943	0.010271	-0.003120				-0.418977	-0.597284	29.788117
18429	11931340	0.117924	0.029676	9.822923	-0.003707	-0.000598	-0.001459				-0.419506	-0.597371	29.787925
18432	11931365	0.118183	0.006902	9.818888	0.001858	0.000545	-0.006191	0.278620	-0.253258	-0.965636	-0.419231	-0.597299	29.787036
18436	11931390	0.108573	0.001375	9.822952	0.003511	0.019303	-0.005192				-0.418720	-0.594540	29.786271
18439	11931415	0.104719	0.008028	9.820156	0.003326	-0.007011	0.020660				-0.418197	-0.601153	29.792219
18443	11931440	0.109906	0.016311	9.836629	0.006510	-0.010443	0.008108				-0.417277	-0.602640	29.793387
18446	11931465	0.100232	0.033450	9.843358	-0.004122	-0.013605	0.000519	0.277637	-0.251764	-0.965606	-0.417868	-0.604589	29.793476
18450	11931490	0.105805	0.020030	9.825616	-0.009592	-0.003678	0.000049				-0.419242	-0.605115	29.793481
18453	11931515	0.102773	0.040293	9.835127	-0.002792	-0.012909	0.009230				-0.414857	-0.605305	29.796605
18457	11931540	0.104429	0.017549	9.842068	0.002025	-0.001274	0.001052				-0.414569	-0.605486	29.796758
18460	11931565	0.137104	0.009881	9.825871	0.001809	-0.002211	0.011265	0.277616	-0.253743	-0.967632	-0.414327	-0.605792	29.798372
18464	11931590	0.101276	0.033420	9.835129	-0.014685	0.013202	-0.013800				-0.416409	-0.603915	29.796370
18467	11931615	0.107031	0.025539	9.826976	-0.005428	0.000265	-0.002873				-0.413560	-0.607918	29.800641
18471	11931640	0.120910	0.014919	9.833959	-0.010045	-0.011234	0.009878				-0.415014	-0.609517	29.802060
18474	11931665	0.122277	0.013592	9.832599	-0.010185	-0.013739	-0.005947	0.278575	-0.254746	-0.968145	-0.416464	-0.611491	29.801214
18478	11931690	0.123494	0.021615	9.820242	-0.018004	-0.000410	0.009485				-0.419057	-0.611540	29.802581
18481	11931715	0.124414	0.019258	9.836726	0.007516	0.013714	-0.019142				-0.414526	-0.609302	29.799063
18485	11931740	0.134354	0.005729	9.836820	-0.009203	0.007284	-0.021647				-0.415811	-0.608281	29.795949
18488	11931765	0.108195	0.018881	9.843463	-0.003831	0.023147	-0.032943	0.278112	-0.254736	-0.967653	-0.416310	-0.605000	29.791214
18492	11931790	0.131602	0.004290	9.856020	-0.014235	-0.003201	-0.010854				-0.418332	-0.605469	29.789650
18495	11931815	0.145173	0.020804	9.835485	-0.007114	-0.009932	0.004432				-0.417013	-0.608097	29.795826
18499	11931840	0.099226	0.003860	9.826994	-0.005983	-0.002043	-0.004405				-0.417864	-0.608394	29.795198
18502	11931865	0.127655	0.008354	9.823050	-0.004007	0.004369	-0.001073	0.278103	-0.254243	-0.967641	-0.418436	-0.607770	29.795046
18506	11931890	0.144087	-0.006298	9.827335	-0.007914	0.005874	0.015989				-0.419594	-0.606912	29.797333
18509	11931915	0.137147	0.001696	9.840970	-0.023051	-0.002293	0.006363				-0.420855	-0.610190	29.796939
18513	11931940	0.159005	0.004768	9.830143	-0.003916	-0.010560	-0.000146				-0.421416	-0.611703	29.796928
18516	11931965	0.133183	-0.005139	9.824510	-0.010492	0.006469	-0.001314	0.279072	-0.254258	-0.967141	-0.422917	-0.610778	29.796731
18520	11931990	0.147089	-0.006152	9.809528	-0.001949	-0.004733	0.017941				-0.423223	-0.611437	29.799309
18523	11932015	0.148472	-0.008799	9.825993	0.000280	-0.000103	0.005233				-0.421129	-0.611558	29.802325
18527	11932040	0.142947	-0.013028	9.836955	-0.011347	-0.014426	-0.000967				-0.422753	-0.613625	29.802198
18530	11932065	0.151071	-0.011411	9.834254	-0.006580	-0.013706	-0.009978	0.279107	-0.253758	-0.965645	-0.423681	-0.615599	29.800786
18534	11932090	0.139004	-0.021011	9.831455	0.000745	-0.010410	-0.015666				-0.423550	-0.617106	29.798540
18537	11932115	0.124093	-0.013241	9.825848	0.003919	-0.006378	-0.006717				-0.420504	-0.618808	29.804932
18541	11932140	0.167478	-0.009974	9.832989	-0.014101	-0.016765	-0.012207				-0.422505	-0.621222	29.803193
18544	11932165	0.166907	-0.004572	9.843951	-0.024626	0.000870	0.005564	0.278189	-0.254230	-0.964672	-0.426041	-0.621091	29.803994
18548	11932190	0.165978	-0.023336	9.826167	-0.000606	0.018831	-0.004344				-0.426121	-0.618399	29.803356
18551	11932215	0.168711	-0.014975	9.835759	0.009118	-0.008252	0.014481				-0.421717	-0.625395	29.806480
18555	11932240	0.150872	-0.003203	9.827370	0.013390	-0.000037	0.009730				-0.419814	-0.625390	29.807875
18558	11932265	0.135898	0.013906	9.824462	-0.004509	-0.015517	-0.011198	0.278189	-0.254230	-0.964672	-0.420443	-0.627624	29.806290
18562	11932290	0.155689	0.025073	9.836910	-0.000156	0.011125	0.012714				-0.420485	-0.626017	29.808103
18565	11932315	0.138286	0.008512	9.828615	-0.005689	0.018309	-0.010099				-0.418413	-0.623949	29.806747
18569	11932340	0.167911	0.020032	9.828795	0.015332	0.020368	-0.023423				-0.416181	-0.621056	29.803366
18572	11932365	0.147657	0.031478	9.834085	-0.016561	-0.009228	-0.023501	0.279087	-0.254255	-0.966647	-0.418516	-0.622402	29.800003
18576	11932390	0.138376	0.020434	9.825828	-0.015897	0.002977	-0.013746				-0.420772	-0.621990	29.798036
18579	11932415	0.155772	0.018409	9.819108	0.004235	0.014013	-0.015838				-0.415018	-0.620435	29.802045
18583	11932440	0.140915	0.023325	9.824471	-0.009930	0.009024	-0.018966				-0.416411	-0.619162	29.799314
18586	11932465	0.133078	0.012416	9.831311	-0.014873	0.002241	-0.007176	0.277648	-0.254725	-0.967160	-0.418530	-0.618849	29.798286
18590	11932490	0.152063	0.011400	9.821846	-0.004444	0.003678	0.000554				-0.419168	-0.618321	29.798375
18593	11932515	0.131476	0.028945	9.833995	0.024259	-0.005829	-0.001389				-0.414400	-0.620903	29.798777
18597	11932540	0.138095	0.031531	9.829916	0.007151	0.005464	0.007720				-0.413387	-0.620113	29.799874
18600	11932565	0.139671	0.019183	9.816250	-0.007227	0.007316	-0.002274	0.277601	-0.253745	-0.968127	-0.414419	-0.619067	29.799549
18604	11932590	0.120833	0.018871	9.831212	-0.010906	-0.008811	0.001220				-0.415983	-0.620328	29.799725
18607	11932615	0.127724	0.008308	9.834024	-0.017039	-0.008598	-0.001565				-0.414584	-0.621402	29.801895
18611	11932640	0.108607	0.010761	9.833890	-0.008975	0.000216	0.012381				-0.415889	-0.621358	29.803661
18614	11932665	0.112695	0.013342	9.829794	-0.005734	-0.004138	-0.000508	0.277641	-0.252751	-0.966124	-0.416710	-0.621951	29.803602
18618	11932690	0.106021	0.014709	9.835235	-0.010668	-0.011501	-0.015414				-0.418214	-0.623615	29.801401
18621	11932715	0.113976	0.013452	9.854487	-0.021392	-0.012572	-0.005759				-0.418419	-0.626646	29.805472
18625	11932740	0.134040	0.030229	9.844969	0.004409	-0.006078	0.011197				-0.417805	-0.627505	29.807079
18628	11932765	0.121190	0.015062	9.831220	0.002682	-0.037891	0.000238	0.277196	-0.253725	-0.965655	-0.417422	-0.632932	29.807156
18632	11932790	0.125068	0.003150	9.832660	0.008200	-0.008476	0.006557				-0.416258	-0.634139	29.808111
18635	11932815	0.107063	0.014778	9.832497	0.000039	0.005023	-0.005735				-0.416001	-0.635508	29.806728
18639	11932840	0.103183	0.023995	9.818721	-0.004713	0.000589	-0.026287				-0.416634	-0.635451	29.802964
18642	11932865	0.109973	0.010727	9.835278	-0.006242	-0.004470	-0.011101	0.276240	-0.253709	-0.965659	-0.417511	-0.636103	29.801387
18646	11932890	0.125073	0.001655	9.827183	0.001383	-0.002611	0.001544				-0.417315	-0.636475	29.801602
18649	11932915	0.124926	0.006835	9.806581	-0.006948	0.021864	-0.004540				-0.414425	-0.635806	29.804249
18653	11932940	0.126853	-0.009197	9.821733	-0.006863	-0.008085	-0.004502				-0.415401	-0.636968	29.803616
18656	11932965	0.127681	0.000578	9.843659	0.012478	-0.001520	-0.009324	0.277706	-0.254716	-0.965180	-0.413599	-0.637196	29.802278
18660	11932990	0.119481	0.018961	9.831199	-0.000367	-0.007886	0.007665				-0.413663	-0.638317	29.803392
18663	11933015	0.120597	0.019257	9.835317	0.004472	0.005360	-0.007102				-0.409842	-0.638429	29.804030
18667	11933040	0.135932	0.004651	9.810783	0.019121	0.004464	0.005856				-0.407113	-0.637783	29.804863
18670	11933065	0.153513	0.006031	9.821874	-0.005277	-0.000775	-0.009228	0.278666	-0.255720	-0.965694	-0.407854	-0.637904	29.803543
18674	11933090	0.127666	0.016378	9.829889	-0.009596	-0.006032	-0.007382				-0.409216	-0.638775	29.802485
18677	11933115	0.119702	0.004331	9.824392	0.017187	-0.008915	-0.016302				-0.402522	-0.641939	29.804908
18681	11933140	0.142122	0.015352	9.824517	0.003769	0.024714	-0.018081				-0.401953	-0.638417	29.802295
18684	11933165	0.154350	0.022138	9.820457	-0.010851	0.020725	0.001998	0.279120	-0.255238	-0.966175	-0.403510	-0.635447	29.802543
18688	11933190	0.161311	0.008751	9.837008	-0.021607	0.014906	-0.005031				-0.406597	-0.633317	29.801813
18691	11933215	0.120548	0.021924	9.864107	0.005764	-0.008376	-0.008671				-0.401125	-0.639145	29.802780
18695	11933240	0.126529	0.004452	9.845005	0.001998	-0.023025	0.007513				-0.400851	-0.642436	29.803880
18698	11933265	0.153371	-0.006100	9.830146	-0.006030	0.012024	-0.005908	0.278676	-0.254730	-0.964681	-0.401705	-0.640720	29.803028
18702	11933290	0.135215	0.019488	9.838170	0.007647	0.018573	-0.000243				-0.400609	-0.638059	29.802976
18705	11933315	0.146862	0.003313	9.821834	0.001995	0.002106	0.005482				-0.401607	-0.639900	29.805590
18709	11933340	0.132798	0.020430	9.827159	-0.016105	0.006831	0.000189				-0.403914	-0.638922	29.805609
18712	11933365	0.138225	0.007216	9.835482	-0.004543	0.016640	-0.007953	0.278653	-0.254240	-0.965164	-0.404552	-0.636546	29.804454
18716	11933390	0.152198	0.008821	9.812243	0.002863	0.003009	-0.001507				-0.404139	-0.636117	29.804240
18719	11933415	0.131576	0.016295	9.832651	-0.015411	0.000523	-0.007705				-0.402743	-0.635437	29.805816
18723	11933440	0.161455	-0.007228	9.845288	-0.010832	0.005405	-0.001703				-0.404292	-0.634664	29.805561
18726	11933465	0.144002	-0.006150	9.836927	-0.007527	0.010525	-0.004756	0.277737	-0.253230	-0.963166	-0.405362	-0.633162	29.804873
18730	11933490	0.142402	0.007138	9.836873	-0.016998	0.008474	0.005358				-0.407806	-0.631942	29.805640
18733	11933515	0.159965	0.010123	9.836989	-0.015053	0.015335	-0.020632				-0.404167	-0.632174	29.804213
18737	11933540	0.150121	0.027582	9.824518	-0.005665	0.024919	-0.014010				-0.404957	-0.628618	29.802188
18740	11933565	0.130231	0.011123	9.843647	-0.002073	-0.002202	0.006787	0.277731	-0.253724	-0.963673	-0.405264	-0.628927	29.803158
18744	11933590	0.151939	0.018008	9.823181	-0.018121	0.000934	0.002639				-0.407864	-0.628791	29.803535
18747	11933615	0.149022	0.010217	9.843781	0.004211	0.006858	0.004651				-0.404205	-0.628339	29.807176
18751	11933640	0.133213	0.002630	9.832710	-0.031789	-0.000574	0.012310				-0.408778	-0.628408	29.808940
18754	11933665	0.162736	0.011571	9.830143	-0.011232	0.002761	0.006828	0.277668	-0.254228	-0.966159	-0.410398	-0.628006	29.809918
18758	11933690	0.160003	0.018299	9.830105	-0.006270	-0.001478	0.002386				-0.411300	-0.628215	29.810264
18761	11933715	0.139755	0.023591	9.827213	0.010245	-0.003427	-0.012794				-0.408603	-0.629991	29.811047
18765	11933740	0.150796	0.013988	9.812234	-0.013794	-0.005949	-0.008023				-0.410567	-0.630851	29.809911
18768	11933765	0.134238	0.009798	9.843673	-0.004181	0.002801	-0.002941	0.278088	-0.254246	-0.968136	-0.411161	-0.630453	29.809489
18772	11933790	0.154404	0.016620	9.831448	-0.023727	0.016306	-0.002947				-0.414555	-0.628120	29.809056
18775	11933815	0.147704	0.024752	9.817657	-0.013559	0.002261	-0.007457				-0.411086	-0.631964	29.811276
18779	11933840	0.130337	0.013733	9.814829	-0.004904	0.001726	-0.002941				-0.411784	-0.631720	29.810857
18782	11933865	0.130316	0.007074	9.839540	-0.003086	0.001082	-0.027095	0.277625	-0.254235	-0.967643	-0.412184	-0.631592	29.806978
18786	11933890	0.131589	0.020605	9.821674	-0.000644	-0.007749	0.006799				-0.412286	-0.632695	29.807959
18789	11933915	0.123560	-0.001066	9.829919	-0.001399	0.012609	0.000364				-0.412872	-0.629070	29.809107
18793	11933940	0.099696	0.045604	9.839206	-0.000909	0.019485	-0.017987				-0.412973	-0.626298	29.806508
18796	11933965	0.136802	0.034213	9.832633	0.002699	0.002718	-0.014517	0.279072	-0.254258	-0.967141	-0.412564	-0.625923	29.804434
18800	11933990	0.123560	0.022802	9.822986	-0.012949	-0.014074	0.001311				-0.414421	-0.627938	29.804634
18803	11934015	0.127261	0.039150	9.829803	-0.024453	-0.003859	-0.002415				-0.413259	-0.629196	29.807559
18807	11934040	0.124545	0.040559	9.833909	-0.007455	-0.020212	-0.009432				-0.414312	-0.632101	29.806229
18810	11934065	0.120056	0.039404	9.858568	0.003617	0.005779	0.001025	0.279117	-0.252769	-0.964632	-0.413796	-0.631273	29.806367
18814	11934090	0.119699	0.017308	9.816108	-0.025374	-0.012174	-0.005406				-0.417422	-0.633022	29.805606
18817	11934115	0.106916	0.020302	9.847561	-0.004573	0.010514	-0.000159				-0.413399	-0.633395	29.809031
18821	11934140	0.119566	0.009529	9.835341	-0.004224	-0.008200	-0.003180				-0.413999	-0.634573	29.808583
18824	11934165	0.111699	-0.013662	9.828509	-0.013162	0.004607	-0.003509	0.279094	-0.252279	-0.965116	-0.415879	-0.633916	29.808068
18828	11934190	0.123164	0.037863	9.840755	-0.011274	-0.006986	-0.016829				-0.417467	-0.634935	29.805663
18831	11934215	0.119947	-0.010555	9.840896	0.000513	-0.013259	-0.001042				-0.416522	-0.639177	29.809687
18835	11934240	0.132970	0.000508	9.847811	0.000753	0.008778	0.016198				-0.416439	-0.637903	29.811995
18838	11934265	0.133369	0.001709	9.832724	-0.002800	-0.012740	-0.003575	0.278142	-0.253249	-0.965638	-0.416835	-0.639731	29.811497
18842	11934290	0.131652	0.000477	9.836830	0.000913	0.003488	-0.004315				-0.416697	-0.639236	29.810876
18845	11934315	0.126275	0.016539	9.825772	0.012493	0.000884	0.014278				-0.413749	-0.642218	29.813799
18849	11934340	0.146526	0.016846	9.838244	-0.006618	-0.007029	0.006230				-0.414707	-0.643219	29.814704
18852	11934365	0.130153	0.016598	9.839513	0.005107	0.005040	-0.011925	0.277655	-0.252749	-0.965629	-0.413956	-0.642509	29.812982
18856	11934390	0.136672	0.022137	9.847762	-0.002809	0.002463	-0.011066				-0.414341	-0.642168	29.811403
18859	11934415	0.141121	0.005960	9.834131	-0.003004	0.008197	-0.004174				-0.411334	-0.642453	29.814268
18863	11934440	0.120907	0.001631	9.823038	0.009102	0.006345	-0.001486				-0.410028	-0.641546	29.814048
18866	11934465	0.135661	0.022026	9.821701	0.003560	0.000215	0.005406	0.277655	-0.252749	-0.965629	-0.409527	-0.641509	29.814825
18870	11934490	0.116615	0.021585	9.843521	-0.007676	-0.006543	-0.021350				-0.410592	-0.642468	29.811769
18873	11934515	0.141071	0.008404	9.834120	-0.020064	0.007549	-0.013001				-0.409857	-0.641708	29.813897
18877	11934540	0.133020	0.014035	9.832682	0.004391	0.004354	-0.011583				-0.409209	-0.641096	29.812220
18880	11934565	0.146735	0.004729	9.827328	0.005592	-0.001004	-0.005931	0.276707	-0.254706	-0.966670	-0.408399	-0.641246	29.811371
18884	11934590	0.118073	0.001545	9.831248	0.006856	0.015904	-0.000094				-0.407416	-0.638968	29.811337
18887	11934615	0.142670	0.000468	9.814956	-0.005841	0.004102	0.007127				-0.407405	-0.643218	29.812062
18891	11934640	0.147910	0.013994	9.813568	0.001420	0.009702	0.016600				-0.407228	-0.641811	29.814431
18894	11934665	0.134492	0.010106	9.831330	0.009507	-0.008976	-0.005318	0.276197	-0.253716	-0.967144	-0.405858	-0.643102	29.813682
18898	11934690	0.134139	0.007327	9.827224	0.012618	0.026280	0.013125				-0.404071	-0.639325	29.815546
18901	11934715	0.137273	0.012562	9.834072	-0.001015	-0.024877	0.003907				-0.402120	-0.645990	29.816742
18905	11934740	0.139845	0.003067	9.827270	-0.002693	0.004604	0.007245				-0.402518	-0.645323	29.817768
18908	11934765	0.157526	0.015577	9.820496	-0.004371	-0.004736	-0.004853	0.276755	-0.255687	-0.965703	-0.403136	-0.646006	29.817084
18912	11934790	0.157490	0.010281	9.821880	0.000584	0.001338	0.007579				-0.403064	-0.645807	29.818169
18915	11934815	0.154764	0.010342	9.825981	0.011800	0.001687	-0.007248				-0.396741	-0.643600	29.820533
18919	11934840	0.177878	0.007718	9.820661	-0.007240	0.006558	-0.010237				-0.397762	-0.642671	29.819060
18922	11934865	0.176324	0.010569	9.816535	0.007422	0.003816	-0.007558	0.276244	-0.254696	-0.966177	-0.396686	-0.642131	29.817981
18926	11934890	0.151735	0.010122	9.839680	-0.003910	0.021121	0.009476				-0.397261	-0.639097	29.819314
18929	11934915	0.157301	0.001999	9.836998	-0.017451	0.020662	-0.020099				-0.396176	-0.640600	29.818646
18933	11934940	0.124984	0.004331	9.844990	0.001565	-0.013265	-0.004534				-0.395945	-0.642504	29.818011
18936	11934965	0.152543	-0.012833	9.828785	-0.011607	-0.007631	-0.013864	0.278567	-0.252772	-0.967109	-0.397585	-0.643611	29.816038
18940	11934990	0.138306	0.018067	9.823098	0.007382	0.007090	0.005436				-0.396536	-0.642590	29.816794
18943	11935015	0.144920	0.028987	9.834079	0.006644	-0.004953	0.003333				-0.394310	-0.642889	29.820191
18947	11935040	0.131584	0.011110	9.839535	-0.003466	-0.000519	0.013092				-0.394827	-0.642950	29.822068
18950	11935065	0.136197	0.003027	9.819012	-0.005630	-0.020878	0.016932	0.278118	-0.252759	-0.966122	-0.395661	-0.645924	29.824519
18954	11935090	0.149613	0.003019	9.816369	-0.015803	-0.008219	0.005609				-0.397934	-0.647095	29.825341
18957	11935115	0.165210	0.037301	9.827335	-0.010213	0.000314	-0.002427				-0.393166	-0.646466	29.827483
18961	11935140	0.133127	-0.006242	9.846460	0.000578	-0.001711	-0.007512				-0.393072	-0.646719	29.826405
18964	11935165	0.131340	0.021876	9.838120	-0.003484	0.011854	0.009498	0.276685	-0.252735	-0.966129	-0.393586	-0.645012	29.827760
18968	11935190	0.126145	0.005666	9.840885	-0.006153	0.007111	-0.000131				-0.394467	-0.643993	29.827740
18971	11935215	0.123515	0.025806	9.821603	-0.004272	-0.009799	-0.002366				-0.393562	-0.649196	29.830836
18975	11935240	0.132701	0.015286	9.836795	0.002331	0.006679	0.001571				-0.393231	-0.648237	29.831047
18978	11935265	0.106220	-0.010631	9.850404	0.002274	-0.008887	0.001155	0.276189	-0.251742	-0.966108	-0.392907	-0.649509	29.831216
18982	11935290	0.144839	0.031614	9.834070	0.003806	0.003383	-0.003457				-0.392356	-0.649028	29.830722
18985	11935315	0.126235	0.012524	9.828518	0.001585	-0.003332	0.006035				-0.390667	-0.650566	29.834572
18989	11935340	0.131653	0.012449	9.838157	-0.005946	-0.003082	-0.001435				-0.391517	-0.651009	29.834374
18992	11935365	0.131794	0.001603	9.831333	-0.010346	0.002098	0.008497	0.277612	-0.252756	-0.967114	-0.393013	-0.650700	29.835588
18996	11935390	0.145130	0.014102	9.836872	-0.007257	0.003695	0.001030				-0.394054	-0.650170	29.835740
18999	11935415	0.139506	0.016706	9.842305	-0.008084	0.012554	-0.003158				-0.390711	-0.650027	29.837165
19003	11935440	0.131691	0.016605	9.834030	0.002193	-0.009935	0.004511				-0.390404	-0.651445	29.837820
19006	11935465	0.128690	0.017885	9.855949	-0.003316	-0.001599	-0.004813	0.278586	-0.253757	-0.967132	-0.390871	-0.651679	29.837135
19010	11935490	0.106245	0.047257	9.848854	0.009768	0.015242	-0.001657				-0.389469	-0.649498	29.836883
19013	11935515	0.145769	-0.006149	9.805398	0.007410	-0.004111	0.000779				-0.387949	-0.653339	29.839940
19017	11935540	0.110068	0.006703	9.839408	-0.008069	-0.006394	-0.017925				-0.389075	-0.654272	29.837366
19020	11935565	0.130182	0.020627	9.828525	0.010991	-0.004810	0.012298	0.279067	-0.254752	-0.967648	-0.387521	-0.654949	29.839143
19024	11935590	0.124979	-0.008057	9.831325	-0.015961	0.011407	0.000103				-0.389808	-0.653315	29.839151
19027	11935615	0.176157	0.030696	9.824689	-0.014859	-0.000291	-0.001729				-0.385342	-0.654411	29.841242
19031	11935640	0.104799	-0.006762	9.832551	-0.004835	0.004517	0.012273				-0.386054	-0.653752	29.842994
19034	11935665	0.142370	0.027387	9.812121	-0.004925	-0.002301	0.016332	0.278580	-0.254252	-0.967639	-0.386787	-0.654066	29.845338
19038	11935690	0.115477	0.009158	9.824346	-0.025511	-0.006269	0.008865				-0.390455	-0.654955	29.846619
19041	11935715	0.131384	0.020440	9.847732	-0.021930	0.000352	0.002660				-0.389316	-0.653978	29.848264
19045	11935740	0.110385	0.009372	9.825668	-0.008060	-0.030226	0.010601				-0.390488	-0.658297	29.849811
19048	11935765	0.138096	0.015040	9.845052	-0.020406	0.007564	-0.009719	0.278566	-0.254254	-0.968134	-0.393395	-0.657223	29.848408
19052	11935790	0.139663	0.007146	9.832740	-0.017700	0.015615	-0.014454				-0.395906	-0.655001	29.846322
19055	11935815	0.138994	-0.013219	9.820459	-0.016662	-0.004230	0.003926				-0.396554	-0.660312	29.852782
19059	11935840	0.099395	-0.000073	9.827012	0.002487	0.000779	0.011642				-0.396217	-0.660189	29.854451
19062	11935865	0.150974	-0.006134	9.816408	-0.006002	0.001399	0.005461	0.277645	-0.253738	-0.966642	-0.397086	-0.659983	29.855233
19066	11935890	0.075867	0.004811	9.851517	-0.009626	0.007406	0.004230				-0.398472	-0.658918	29.855835
19069	11935915	0.146395	0.020927	9.836863	0.007503	-0.003687	-0.016196				-0.395594	-0.659901	29.853330
19073	11935940	0.119588	-0.010495	9.857355	-0.015394	-0.003988	-0.017557				-0.397771	-0.660490	29.850818
19076	11935965	0.134448	0.001677	9.842329	-0.011019	-0.002569	-0.014898	0.278160	-0.254234	-0.965661	-0.399324	-0.660872	29.848677
19080	11935990	0.138711	-0.006267	9.835516	-0.013867	-0.003108	0.002968				-0.401316	-0.661315	29.849108
19083	11936015	0.156154	-0.003422	9.826042	-0.013472	0.005037	-0.006722				-0.399728	-0.660687	29.850848
19087	11936040	0.157305	0.017993	9.821859	-0.022608	0.006436	-0.012179				-0.402946	-0.659778	29.849090
19090	11936065	0.143874	0.023322	9.825858	-0.009792	-0.011669	-0.002193	0.277672	-0.255215	-0.966677	-0.404345	-0.661451	29.848773
19094	11936090	0.133035	0.021780	9.810703	-0.007953	-0.003302	0.003734				-0.405491	-0.661921	29.849313
19097	11936115	0.162837	0.023745	9.825994	-0.009122	-0.012751	-0.005406				-0.404735	-0.665320	29.851149
19101	11936140	0.149797	0.019578	9.869805	-0.013439	0.024682	-0.003836				-0.406654	-0.661789	29.850572
19104	11936165	0.100165	0.036000	9.826888	-0.018112	0.001779	0.014499	0.277634	-0.254727	-0.967655	-0.409272	-0.661519	29.852658
19108	11936190	0.129515	-0.015964	9.799839	-0.007351	0.003141	0.002638				-0.410329	-0.661066	29.853038
19111	11936215	0.137227	0.015183	9.824475	-0.001015	-0.007761	-0.007628				-0.407649	-0.664701	29.854607
19115	11936240	0.139397	0.039394	9.824408	-0.016759	-0.005779	0.010967				-0.410068	-0.665517	29.856185
19118	11936265	0.130772	-0.000972	9.828596	-0.000522	-0.021063	-0.018443	0.277630	-0.253740	-0.967137	-0.410112	-0.668553	29.853573
19122	11936290	0.152148	0.022083	9.817696	-0.015707	-0.018752	0.005916				-0.412372	-0.671233	29.854431
19125	11936315	0.159972	0.022206	9.820482	-0.010850	0.006548	-0.018209				-0.409793	-0.668773	29.853728
19129	11936340	0.160212	0.006045	9.843859	-0.021920	-0.009216	0.004913				-0.412941	-0.670088	29.854436
19132	11936365	0.189158	0.027578	9.738383	-0.031172	-0.008945	-0.001679	0.278113	-0.253254	-0.966628	-0.417403	-0.671371	29.854210
19136	11936390	0.169361	0.043934	9.802660	-0.003956	0.005506	-0.017577				-0.417940	-0.670600	29.851688
19139	11936415	0.079120	-0.044559	9.927125	0.000221	-0.024246	-0.011139				-0.416712	-0.679128	29.855961
19143	11936440	0.171571	-0.004661	9.783630	-0.015292	-0.003140	0.003178				-0.418908	-0.679574	29.856424
19146	11936465	0.130201	0.005718	9.857368	-0.010987	-0.002679	0.003217	0.277613	-0.251274	-0.966089	-0.420487	-0.679955	29.856888
19150	11936490	0.169557	0.023557	9.795862	-0.020596	0.009793	0.016582				-0.423465	-0.678535	29.859254
19153	11936515	0.138349	0.012254	9.802539	-0.015284	0.018463	-0.012128				-0.420292	-0.678144	29.855009
19157	11936540	0.153447	0.018057	9.817706	-0.011112	-0.003910	0.010876				-0.421903	-0.678693	29.856578
19160	11936565	0.129128	-0.002507	9.832703	-0.015563	-0.003193	0.007531	0.278095	-0.252269	-0.966605	-0.424145	-0.679142	29.857659
19164	11936590	0.127777	0.000336	9.834063	-0.010964	-0.001082	-0.012225				-0.425694	-0.679310	29.855902
19167	11936615	0.159534	0.008320	9.767041	-0.024351	-0.021316	-0.009792				-0.427695	-0.682377	29.861200
19171	11936640	0.154374	0.010068	9.861638	-0.022642	0.003937	-0.013247				-0.430915	-0.681827	29.859298
19174	11936665	0.098671	0.018637	9.879054	-0.020742	0.002381	0.006799	0.276647	-0.252247	-0.967107	-0.433898	-0.681479	29.860269
19178	11936690	0.151949	-0.000965	9.828743	-0.030683	0.008278	-0.009660				-0.438277	-0.680304	29.858876
19181	11936715	0.118182	-0.006679	9.872416	-0.020681	-0.007629	-0.002888				-0.435505	-0.684333	29.860718
19185	11936740	0.140046	-0.006386	9.875305	-0.026985	-0.028664	-0.007477				-0.439358	-0.688447	29.859684
19188	11936765	0.153002	0.007693	9.865752	-0.003459	0.007141	0.000328	0.277149	-0.252745	-0.966621	-0.439854	-0.687424	29.859727
19192	11936790	0.133098	0.005663	9.843670	-0.016029	-0.006306	0.011575				-0.442170	-0.688314	29.861394
19195	11936815	0.132995	0.016520	9.850497	-0.015371	-0.013271	-0.002162				-0.443532	-0.689741	29.860600
19199	11936840	0.114172	-0.013361	9.857319	-0.001879	-0.002632	-0.005153				-0.443792	-0.690124	29.859862
19202	11936865	0.119104	0.023071	9.850377	-0.007173	0.000666	0.014855	0.278576	-0.253265	-0.967121	-0.444845	-0.690012	29.861995
19206	11936890	0.116769	0.001286	9.851795	-0.023957	0.000115	-0.016385				-0.448248	-0.690014	29.859642
19209	11936915	0.128429	0.057893	9.825646	-0.026277	-0.014795	-0.003782				-0.448019	-0.694613	29.865609
19213	11936940	0.135618	0.009524	9.825852	-0.026727	0.009015	-0.000635				-0.451846	-0.693322	29.865519
19216	11936965	0.130391	0.007996	9.821710	-0.026061	0.009218	-0.015527	0.278046	-0.252771	-0.968596	-0.455552	-0.692020	29.863280
19220	11936990	0.118788	0.051093	9.821485	-0.025076	0.005469	-0.006610				-0.459132	-0.691244	29.862320
19223	11937015	0.114423	0.009104	9.795535	-0.032242	-0.000741	0.004528				-0.460681	-0.693708	29.864133
19227	11937040	0.115126	0.041280	9.798178	-0.023174	0.001472	0.001708				-0.464004	-0.693495	29.864377
19230	11937065	0.121897	0.045426	9.807805	-0.040457	-0.002965	-0.011460	0.278109	-0.252267	-0.966110	-0.469779	-0.693933	29.862732
19234	11937090	0.116541	0.031693	9.800961	-0.047566	0.012600	0.006501				-0.476603	-0.692121	29.863646
19237	11937115	0.128629	0.040140	9.795530	-0.043160	0.007978	0.004683				-0.476647	-0.693592	29.864945
19241	11937140	0.136070	-0.010718	9.817693	-0.028276	0.009549	-0.003174				-0.480692	-0.692228	29.864489
19244	11937165	0.111643	-0.012569	9.827131	-0.039621	0.005190	0.009301	0.278573	-0.252277	-0.966603	-0.486383	-0.691473	29.865796
19248	11937190	0.134556	0.009221	9.816236	-0.050037	-0.001648	-0.001211				-0.493548	-0.691711	29.865629
19251	11937215	0.157962	-0.038657	9.849480	-0.046861	0.002564	-0.015658				-0.496990	-0.690893	29.867001
19255	11937240	0.150716	-0.014666	9.854836	-0.047040	0.008520	-0.015277				-0.503702	-0.689692	29.864807
19258	11937265	0.155050	-0.029001	9.860398	-0.029296	0.011142	-0.009000	0.278066	-0.252274	-0.967595	-0.507882	-0.688107	29.863501
19262	11937290	0.127505	0.000068	9.862847	-0.032282	0.005852	0.001824				-0.512509	-0.687267	29.863750
19265	11937315	0.160231	-0.016988	9.849424	-0.038314	0.008880	-0.003116				-0.517628	-0.688659	29.865539
19269	11937340	0.123659	-0.016060	9.857398	-0.023523	0.004683	0.004330				-0.521005	-0.687982	29.866145
19272	11937365	0.176401	-0.000356	9.834395	-0.017546	0.009170	-0.008048	0.278515	-0.252287	-0.968582	-0.523504	-0.686679	29.864988
19276	11937390	0.139092	-0.016088	9.820477	-0.032179	-0.003575	-0.006661				-0.528102	-0.687200	29.864028
19279	11937415	0.148617	-0.037512	9.830211	-0.035873	-0.013319	0.009625				-0.530384	-0.689314	29.869153
19283	11937440	0.150499	0.006897	9.823223	-0.039582	0.019740	-0.018913				-0.536021	-0.686512	29.866414
19286	11937465	0.150761	0.003005	9.831454	-0.038412	0.002319	-0.007987	0.277593	-0.251771	-0.967090	-0.541510	-0.686190	29.865273
19290	11937490	0.160452	-0.013200	9.821987	-0.042151	0.004026	-0.001137				-0.547545	-0.685615	29.865097
19293	11937515	0.132997	0.013478	9.816222	-0.043121	0.009932	0.002672				-0.549387	-0.686865	29.867220
19297	11937540	0.137727	-0.022774	9.820490	-0.028472	-0.001371	-0.008836				-0.553450	-0.687073	29.865955
19300	11937565	0.126758	-0.017416	9.842337	-0.022666	-0.013176	-0.011580	0.277097	-0.250778	-0.967070	-0.556677	-0.688977	29.864311
19304	11937590	0.151082	-0.007827	9.813663	-0.036505	-0.007598	-0.017764				-0.561875	-0.690090	29.861774
19307	11937615	0.152418	-0.021393	9.823323	-0.042450	0.007674	-0.011814				-0.565871	-0.688897	29.864955
19311	11937640	0.162089	-0.022514	9.822025	-0.039086	-0.004597	-0.011852				-0.571450	-0.689572	29.863261
19314	11937665	0.147357	-0.030772	9.827438	-0.038491	-0.000834	-0.000396	0.278007	-0.248332	-0.967007	-0.576962	-0.689693	29.863203
19318	11937690	0.156590	-0.028133	9.857663	-0.055864	-0.014378	-0.001264				-0.584962	-0.691754	29.863049
19321	11937715	0.166576	0.017920	9.864437	-0.053667	-0.007440	0.007354				-0.586959	-0.693439	29.864028
19325	11937740	0.143199	-0.018919	9.827373	-0.055346	-0.018144	-0.001460				-0.594885	-0.696040	29.863853
19328	11937765	0.134747	-0.008293	9.831383	-0.047012	-0.009425	0.009196	0.278963	-0.248349	-0.967002	-0.601635	-0.697376	29.865179
19332	11937790	0.137431	-0.016127	9.852006	-0.046726	-0.008513	0.010605				-0.608346	-0.698580	29.866708
19335	11937815	0.117413	-0.034046	9.838208	-0.032854	0.000601	-0.012243				-0.611417	-0.700948	29.865756
19339	11937840	0.143141	-0.022786	9.832870	-0.040743	-0.015275	-0.002551				-0.617249	-0.703140	29.865412
19342	11937865	0.137868	-0.028292	9.853415	-0.056233	-0.028418	0.003006	0.278986	-0.248839	-0.966519	-0.625309	-0.707205	29.865887
19346	11937890	0.123119	-0.054123	9.845169	-0.040761	-0.014047	-0.000145				-0.631148	-0.709218	29.865883
19349	11937915	0.138611	-0.072803	9.823388	-0.049990	-0.010373	-0.012244				-0.636258	-0.711491	29.868251
19353	11937940	0.138587	-0.077960	9.842611	-0.034848	-0.012664	-0.023384				-0.641208	-0.713342	29.864915
19356	11937965	0.146809	-0.052572	9.808290	-0.046575	-0.031190	-0.007831	0.279959	-0.251322	-0.967562	-0.647866	-0.717822	29.863847
19360	11937990	0.122296	-0.086726	9.832917	-0.056617	-0.005978	-0.005995				-0.655965	-0.718688	29.862994
19363	11938015	0.161744	-0.084349	9.831812	-0.033720	-0.008218	-0.008306				-0.655620	-0.722601	29.865425
19367	11938040	0.129335	-0.100703	9.848106	-0.010835	-0.007118	-0.011255				-0.657152	-0.723639	29.863816
19370	11938065	0.024878	-0.083864	9.851444	-0.024655	-0.014812	0.010487	0.278989	-0.251308	-0.968062	-0.660703	-0.725743	29.865344
19374	11938090	0.173413	0.001296	9.926253	-0.021358	-0.027607	0.008330				-0.663778	-0.729683	29.866592
19377	11938115	0.179272	-0.128482	9.759388	-0.008653	-0.011908	0.016342				-0.667176	-0.729859	29.869488
19381	11938140	0.146274	-0.148531	9.870322	0.004748	-0.016141	0.001119				-0.666499	-0.732169	29.869673
19384	11938165	0.169849	0.015689	9.808238	-0.008142	-0.012141	-0.009906	0.277993	-0.248335	-0.967502	-0.667647	-0.733925	29.868284
19388	11938190	0.129634	-0.054702	9.858935	-0.005724	0.002211	-0.004877				-0.668458	-0.733616	29.867582
19391	11938215	0.122004	-0.079308	9.861699	-0.014080	0.001574	-0.010660				-0.669826	-0.739229	29.870256
19395	11938240	0.160140	-0.064050	9.812548	-0.015733	-0.003909	0.000775				-0.672081	-0.739788	29.870386
19398	11938265	0.136448	-0.053462	9.848001	-0.009121	0.011262	0.013092	0.277497	-0.247342	-0.967481	-0.673411	-0.738152	29.872226
19402	11938290	0.131196	-0.047153	9.826008	-0.026032	0.001460	-0.004768				-0.677132	-0.737951	29.871555
19405	11938315	0.147384	-0.037138	9.837048	-0.005856	-0.003587	-0.007737				-0.672156	-0.739940	29.872837
19409	11938340	0.142620	-0.039994	9.808222	-0.012088	-0.039059	0.002481				-0.673893	-0.745530	29.873266
19412	11938365	0.136542	-0.032027	9.823253	-0.012320	-0.007962	-0.009841	0.277987	-0.248829	-0.968008	-0.675639	-0.746687	29.871855
19416	11938390	0.117418	-0.037313	9.853313	0.003505	-0.008297	-0.007369				-0.675123	-0.747888	29.870818
19419	11938415	0.129422	-0.018332	9.862926	0.002013	-0.014828	-0.000907				-0.676179	-0.750180	29.873721
19423	11938440	0.104088	-0.042028	9.876544	-0.034216	-0.029890	-0.012608				-0.681057	-0.754483	29.871968
19426	11938465	0.099578	-0.024376	9.880565	-0.012814	-0.025895	-0.010858	0.277012	-0.249310	-0.969014	-0.682873	-0.758210	29.870453
19430	11938490	0.117094	-0.008042	9.844981	-0.014246	-0.005111	0.008270				-0.684929	-0.758928	29.871641
19433	11938515	0.140008	-0.065970	9.812407	-0.035506	-0.020507	-0.002696				-0.684547	-0.763919	29.871694
19437	11938540	0.129166	-0.064361	9.847983	-0.008114	-0.040230	-0.010087				-0.685690	-0.769698	29.870315
19440	11938565	0.157887	-0.066679	9.802924	-0.005902	-0.031114	-0.005893	0.276990	-0.247338	-0.968473	-0.686525	-0.774165	29.869534
19444	11938590	0.123214	-0.040297	9.846497	-0.012180	-0.032704	0.008087				-0.688286	-0.778835	29.870738
19447	11938615	0.110779	-0.013842	9.842211	-0.037573	-0.038899	0.003874				-0.691082	-0.782010	29.873630
19451	11938640	0.162938	-0.038450	9.816578	-0.013162	-0.046460	-0.005472				-0.692958	-0.788674	29.872927
19454	11938665	0.234060	-0.065798	9.749952	-0.013848	-0.020312	-0.025591	0.277001	-0.246349	-0.967460	-0.694891	-0.791628	29.869290
19458	11938690	0.180769	-0.058179	9.820878	-0.006275	-0.038192	0.012726				-0.695816	-0.797076	29.871180
19461	11938715	0.114808	0.049959	9.863978	-0.013597	-0.024544	0.000677				-0.695712	-0.801375	29.873041
19465	11938740	0.117029	-0.092911	9.869942	-0.029245	-0.026374	-0.002305				-0.699897	-0.805156	29.872754
19468	11938765	0.114243	0.003662	9.827105	-0.029439	-0.008203	-0.014186	0.276493	-0.247827	-0.969477	-0.704086	-0.806356	29.870740
19472	11938790	0.145535	-0.082909	9.874205	-0.017719	-0.030756	-0.010125				-0.706604	-0.810779	29.869349
19475	11938815	0.296736	0.033091	9.695199	-0.031452	-0.032543	-0.021894				-0.706581	-0.818064	29.872262
19479	11938840	0.164123	-0.086637	9.890815	-0.031374	-0.020903	-0.013037				-0.711049	-0.821081	29.870432
19482	11938865	0.202016	-0.036505	9.816849	-0.029550	-0.029212	-0.024751	0.276000	-0.247821	-0.969974	-0.715232	-0.825309	29.866937
19486	11938890	0.169531	-0.063770	9.844149	-0.024313	-0.019349	-0.023007				-0.718667	-0.828121	29.863676
19489	11938915	0.206763	-0.020251	9.848372	-0.030312	-0.013962	-0.041236				-0.719115	-0.833367	29.862220
19493	11938940	0.110938	-0.137488	9.857700	-0.026658	-0.014423	-0.011548				-0.722910	-0.835453	29.860589
19496	11938965	0.175445	-0.027114	9.881090	-0.010970	-0.014189	0.006828	0.277405	-0.247850	-0.970957	-0.724496	-0.837473	29.861598
19500	11938990	0.203716	-0.039499	9.760639	-0.033149	-0.024086	-0.010931				-0.729222	-0.840943	29.860079
19503	11939015	0.267031	-0.019589	9.732223	-0.027375	0.002150	-0.020295				-0.728919	-0.841575	29.857833
19507	11939040	0.138304	-0.100106	9.911253	-0.004634	-0.008802	-0.023012				-0.729535	-0.842878	29.854561
19510	11939065	0.214513	-0.032607	9.751097	-0.025286	-0.012708	-0.021270	0.276941	-0.247840	-0.970464	-0.733112	-0.844737	29.851523
19514	11939090	0.178685	-0.052886	9.835942	-0.017351	-0.004026	-0.037120				-0.735519	-0.845382	29.846223
19517	11939115	0.168260	-0.067619	9.841407	-0.007503	-0.009120	0.007935				-0.736040	-0.851060	29.853733
19521	11939140	0.223353	-0.007786	9.775756	-0.006205	-0.013758	-0.011976				-0.736904	-0.853053	29.852054
19524	11939165	0.139377	-0.069779	9.850812	-0.027190	0.013712	-0.005737	0.276516	-0.248317	-0.968994	-0.740786	-0.851100	29.851202
19528	11939190	0.148299	-0.014164	9.856190	-0.014456	-0.012203	-0.006656				-0.742842	-0.852860	29.850262
19531	11939215	0.167904	-0.042598	9.838584	-0.042219	-0.026309	-0.006658				-0.746337	-0.857087	29.847601
19535	11939240	0.157802	-0.030635	9.865910	-0.054464	-0.003779	-0.009763				-0.754118	-0.857646	29.846213
19538	11939265	0.221513	-0.049889	9.751195	-0.032274	-0.014523	-0.011699	0.276025	-0.246829	-0.968466	-0.758716	-0.859749	29.844563
19542	11939290	0.193064	-0.039251	9.875776	-0.034310	-0.002541	-0.012004				-0.763605	-0.860135	29.842859
19545	11939315	0.173487	-0.054401	9.838657	-0.031176	-0.008249	-0.008315				-0.762331	-0.864266	29.844801
19549	11939340	0.176738	-0.080034	9.822299	-0.024170	-0.012800	-0.027587				-0.765734	-0.866152	29.840874
19552	11939365	0.151171	-0.035855	9.854904	-0.031196	-0.001319	0.009225	0.276474	-0.246842	-0.969454	-0.770223	-0.866323	29.842197
19556	11939390	0.140059	-0.090170	9.815229	-0.031495	0.008371	-0.012200				-0.774707	-0.865148	29.840428
19559	11939415	0.162133	-0.022456	9.831617	-0.042835	-0.012261	0.012481				-0.778385	-0.870002	29.844786
19563	11939440	0.145308	-0.071076	9.819319	-0.025637	-0.000387	-0.000660				-0.782056	-0.870059	29.844694
19566	11939465	0.153436	-0.076431	9.820764	-0.028785	-0.004499	-0.023578	0.275997	-0.246834	-0.969456	-0.786128	-0.870750	29.841320
19570	11939490	0.178600	-0.040914	9.820825	-0.028019	0.006309	-0.003214				-0.790134	-0.869852	29.840851
19573	11939515	0.143574	-0.052431	9.809645	-0.034490	0.001729	0.010507				-0.792688	-0.870864	29.843637
19577	11939540	0.175674	-0.070715	9.790717	-0.025789	-0.019307	0.001423				-0.796386	-0.873627	29.843881
19580	11939565	0.169217	-0.062695	9.837283	-0.031275	0.000304	-0.008485	0.275962	-0.247333	-0.970952	-0.800847	-0.873600	29.842663
19584	11939590	0.147348	-0.045262	9.848046	-0.029224	0.007513	-0.000468				-0.805031	-0.872525	29.842583
19587	11939615	0.193640	-0.094758	9.752534	-0.021631	-0.005402	-0.008504				-0.805044	-0.875050	29.843584
19591	11939640	0.172123	-0.041285	9.801584	-0.036386	-0.006115	-0.015076				-0.810223	-0.875957	29.841439
19594	11939665	0.151926	-0.065609	9.813860	-0.017893	0.001493	-0.004402	0.274951	-0.245844	-0.971912	-0.812777	-0.875752	29.840802
19598	11939690	0.106580	-0.053565	9.908146	-0.008047	-0.016178	0.005934				-0.813943	-0.878057	29.841673
19601	11939715	0.183275	0.013087	9.815192	-0.012447	-0.014399	0.015548				-0.815892	-0.878263	29.845484
19605	11939740	0.216876	-0.127746	9.773365	-0.004527	0.007682	-0.003055				-0.816534	-0.877169	29.845028
19608	11939765	0.187374	0.010322	9.801519	-0.022419	0.013106	-0.010583	0.274013	-0.246812	-0.971940	-0.819721	-0.875314	29.843482
19612	11939790	0.109894	-0.025648	9.908073	-0.033182	0.004297	0.003779				-0.824482	-0.874690	29.844016
19615	11939815	0.212994	-0.115821	9.754093	-0.003058	-0.005740	0.001000				-0.818439	-0.879994	29.847265
19619	11939840	0.130058	0.054049	9.914824	-0.039260	0.026633	-0.003110				-0.824055	-0.876186	29.846772
19622	11939865	0.123514	0.111908	9.946129	-0.055338	0.015798	0.022025	0.275457	-0.245848	-0.970920	-0.832029	-0.873878	29.849896
19626	11939890	0.140485	2.100190	10.163885	-0.161478	0.012904	0.053869				-0.855277	-0.871916	29.857596
19629	11939915	0.061459	-1.729434	9.320404	-0.254700	0.025053	0.082880				-0.870560	-0.871041	29.864512
19633	11939940	0.350142	-1.109918	9.774667	-0.028192	0.034356	-0.008465				-0.874579	-0.866139	29.863226
19636	11939965	0.127015	0.194640	10.014475	-0.024463	0.018440	0.000180	0.276905	-0.245870	-0.970418	-0.878083	-0.863497	29.863219
19640	11939990	0.167842	-0.179334	9.900739	-0.022313	0.013062	0.007346				-0.881294	-0.861610	29.864239
19643	11940015	0.266665	0.073171	9.731926	-0.036168	0.037019	0.003380				-0.903628	-0.857774	29.873824
19647	11940040	0.071297	-0.070475	10.031380	-0.049740	0.026134	0.013649				-0.910781	-0.854000	29.875707
19650	11940065	0.262176	-0.123516	9.655730	-0.020666	0.033630	-0.020085	0.275946	-0.244867	-0.969905	-0.913697	-0.849229	29.872759
19654	11940090	0.103676	0.077636	9.922804	-0.055382	0.033951	0.006938				-0.921644	-0.844351	29.873678
19657	11940115	0.120195	-0.229304	9.834727	-0.052753	0.030097	0.004619				-0.921586	-0.844574	29.876930
19661	11940140	0.216851	-0.070170	9.786901	-0.042099	0.041716	0.008294				-0.927632	-0.838580	29.878023
19664	11940165	0.219147	-0.046528	9.626376	-0.034359	0.038764	-0.016762	0.275393	-0.242401	-0.970839	-0.932517	-0.833067	29.875520
19668	11940190	-0.046517	-0.219639	10.175059	-0.023127	0.018205	0.016944				-0.935865	-0.830421	29.877918
19671	11940215	0.311807	-0.082439	9.661412	-0.020054	0.013718	-0.002106				-0.940442	-0.827781	29.878423
19675	11940240	0.179741	0.006340	9.870057	-0.035860	0.035129	0.012629				-0.945603	-0.822720	29.880148
19678	11940265	0.179392	-0.136356	9.891080	-0.038867	0.014812	-0.006932	0.274906	-0.241900	-0.970830	-0.951156	-0.820615	29.879118
19682	11940290	0.171668	-0.050780	9.812586	-0.054251	0.041360	-0.012118				-0.958901	-0.814720	29.877297
19685	11940315	0.190308	-0.265779	9.777730	-0.026260	0.035712	-0.016646				-0.955342	-0.814444	29.881576
19689	11940340	0.170551	0.000684	9.860407	-0.037365	0.023998	0.010996				-0.960716	-0.810980	29.883099
19692	11940365	0.124577	-0.113031	9.854988	-0.029038	0.055176	0.007623	0.275446	-0.242886	-0.969366	-0.964888	-0.803060	29.884054
19696	11940390	0.157081	-0.092359	9.845531	-0.034745	0.034699	-0.003877				-0.969857	-0.798100	29.883417
19699	11940415	0.154256	-0.141323	9.816854	-0.040652	0.018816	-0.006138				-0.975557	-0.796036	29.883957
19703	11940440	0.163199	-0.125788	9.830592	-0.027302	0.031945	0.002134				-0.979471	-0.791456	29.884192
19706	11940465	0.156347	-0.112302	9.831869	-0.001828	0.030693	-0.006653	0.275971	-0.243875	-0.968397	-0.979719	-0.787076	29.883163
19710	11940490	0.172887	-0.117795	9.810059	-0.021900	0.025034	0.008841				-0.982872	-0.783469	29.884363
19713	11940515	0.269447	0.115050	9.807240	-0.041640	0.025280	0.013511				-0.987793	-0.780012	29.886984
19717	11940540	0.178339	-0.117004	9.779922	-0.066289	0.040625	0.000231				-0.997287	-0.774193	29.886912
19720	11940565	0.155843	-0.164410	9.797745	-0.064924	0.048932	0.025019	0.276385	-0.244387	-0.970881	-1.006634	-0.767122	29.890375
19724	11940590	0.153697	-0.091766	9.781045	-0.059117	0.033458	0.018996				-1.015137	-0.762283	29.893006
19727	11940615	0.219406	-0.008297	9.804564	-0.051484	0.056337	0.024927				-1.014322	-0.756935	29.897640
19731	11940640	0.493574	0.682911	9.823645	-0.172423	0.114483	0.005643				-1.039027	-0.740525	29.898163
19734	11940665	0.194572	-0.107849	9.773205	-0.225294	0.141212	0.030167	0.276817	-0.241933	-0.970820	-1.071348	-0.720221	29.902105
19738	11940690	-0.189813	-0.881900	9.797556	-0.132899	0.109729	0.022723				-1.090421	-0.704445	29.905071
19741	11940715	-0.286316	-0.692340	10.059736	0.001256	0.045997	0.002404				-1.076775	-0.710345	29.907317
19745	11940740	0.088293	0.058089	9.917265	0.021081	-0.013965	-0.000682				-1.073755	-0.712346	29.907257
19748	11940765	0.245544	-0.041263	9.726661	-0.010386	0.020212	0.003774	0.277754	-0.240965	-0.970792	-1.075248	-0.709442	29.907741
19752	11940790	0.048576	-0.227021	9.856187	0.007769	-0.000349	-0.002590				-1.074131	-0.709499	29.907365
19755	11940815	0.125252	-0.095466	9.820633	-0.003688	-0.001973	0.006537				-1.091981	-0.695476	29.913989
19759	11940840	0.153020	-0.134103	9.814090	-0.008710	0.007211	-0.001970				-1.093225	-0.694449	29.913685
19762	11940865	0.108166	-0.143970	9.848100	0.000307	0.001344	-0.014156	0.277782	-0.242442	-0.970827	-1.093156	-0.694295	29.911660
19766	11940890	0.118690	-0.110202	9.850807	-0.006093	-0.007930	-0.025894				-1.093984	-0.695502	29.907975
19769	11940915	0.129274	-0.103551	9.831662	-0.011536	0.012134	0.008616				-1.090829	-0.694135	29.915210
19773	11940940	0.114960	-0.134574	9.863198	-0.006163	-0.011255	0.025028				-1.091755	-0.695679	29.918819
19776	11940965	0.111195	-0.097982	9.861696	0.003399	0.017828	-0.004506	0.278719	-0.241474	-0.970799	-1.091260	-0.693138	29.918126
19780	11940990	0.118946	-0.138665	9.837183	-0.016116	0.009096	-0.006311				-1.093557	-0.691852	29.917206
19783	11941015	0.127514	-0.067068	9.832893	-0.002964	-0.002724	-0.000446				-1.089634	-0.696277	29.916754
19787	11941040	0.123348	-0.154801	9.829029	-0.015773	0.010724	0.005896				-1.091904	-0.694725	29.917564
19790	11941065	0.130411	-0.094028	9.822036	-0.004494	0.024192	-0.023600	0.278281	-0.240472	-0.968799	-1.092506	-0.691325	29.914123
19794	11941090	0.121689	-0.121179	9.806973	-0.008444	0.009805	0.012966				-1.093737	-0.689885	29.915951
19797	11941115	0.135855	-0.111205	9.828983	0.010361	0.037464	-0.004128				-1.090435	-0.686225	29.914910
19801	11941140	0.139003	-0.108718	9.822142	-0.007087	0.004242	-0.006069				-1.091439	-0.685634	29.914021
19804	11941165	0.118973	-0.055270	9.843773	-0.022393	0.008370	0.007068	0.279302	-0.242453	-0.967851	-1.094658	-0.684416	29.915019
19808	11941190	0.124424	-0.133263	9.830343	-0.017224	-0.003085	-0.003651				-1.097119	-0.684867	29.914504
19811	11941215	0.132016	-0.108645	9.855001	-0.008962	0.006515	0.011043				-1.094316	-0.683552	29.921099
19815	11941240	0.142204	-0.054690	9.841193	-0.008957	-0.010322	-0.008565				-1.095584	-0.685054	29.919899
19818	11941265	0.134518	-0.088524	9.838497	-0.004293	0.003681	-0.015005	0.278786	-0.241957	-0.968831	-1.096173	-0.684568	29.917740
19822	11941290	0.109249	-0.196572	9.807137	0.000232	0.010352	0.006211				-1.096150	-0.683068	29.918609
19825	11941315	0.104868	-0.129411	9.863116	-0.014164	0.021785	-0.001402				-1.097783	-0.683440	29.919516
19829	11941340	0.118652	-0.137140	9.852275	-0.006723	0.017688	-0.010015				-1.098729	-0.680934	29.918035
19832	11941365	0.143160	-0.120759	9.822206	-0.007366	0.017494	-0.006247	0.278762	-0.241467	-0.969315	-1.099772	-0.678446	29.917097
19836	11941390	0.131745	-0.103184	9.838536	0.005943	0.021948	-0.018008				-1.098891	-0.675352	29.914470
19839	11941415	0.132258	-0.122128	9.838605	-0.003560	0.005265	0.000888				-1.097386	-0.677725	29.920528
19843	11941440	0.121195	-0.119821	9.835776	-0.016850	0.026147	0.001150				-1.099800	-0.673977	29.920626
19846	11941465	0.142996	-0.111222	9.835889	-0.004727	0.009651	0.008395	0.278294	-0.241951	-0.969329	-1.100491	-0.672572	29.921800
19850	11941490	0.141757	-0.125733	9.833190	0.014569	0.011243	-0.006069				-1.098394	-0.670978	29.920897
19853	11941515	0.141676	-0.112803	9.822163	-0.009446	0.013950	0.003774				-1.098092	-0.669004	29.922233
19857	11941540	0.141782	-0.122102	9.838655	-0.011639	0.001386	0.005031				-1.099768	-0.668791	29.922960
19860	11941565	0.136408	-0.112800	9.831737	-0.011784	-0.014226	0.002939	0.278269	-0.242943	-0.970836	-1.101461	-0.670821	29.923414
19864	11941590	0.156790	-0.124596	9.815457	-0.012711	0.017901	0.007205				-1.103294	-0.668237	29.924400
19867	11941615	0.146003	-0.123605	9.831832	-0.024705	0.000529	0.010878				-1.100047	-0.670655	29.926674
19871	11941640	0.166281	-0.114949	9.820975	-0.009401	-0.003468	-0.021791				-1.101357	-0.671211	29.923564
19874	11941665	0.159408	-0.116388	9.834649	-0.007832	-0.004472	0.006178	0.279235	-0.241970	-0.969819	-1.102489	-0.671835	29.924461
19878	11941690	0.149939	-0.107336	9.811239	-0.016230	0.006641	0.003031				-1.104819	-0.670875	29.924874
19881	11941715	0.143221	-0.120825	9.820835	-0.018167	0.011246	0.003697				-1.104057	-0.669165	29.928261
19885	11941740	0.138908	-0.114092	9.830388	-0.018954	0.006928	-0.010917				-1.106753	-0.668203	29.926677
19888	11941765	0.144774	-0.134030	9.845572	-0.002177	-0.003272	-0.008479	0.281127	-0.241018	-0.969786	-1.107051	-0.668695	29.925472
19892	11941790	0.135267	-0.132963	9.838655	-0.008059	-0.000593	-0.012086				-1.108185	-0.668813	29.923740
19895	11941815	0.152261	-0.108533	9.833203	-0.012527	0.019558	0.002563				-1.108306	-0.666462	29.928413
19899	11941840	0.133676	-0.123387	9.849581	-0.005135	-0.006281	-0.004432				-1.109034	-0.667373	29.927794
19902	11941865	0.146771	-0.092231	9.839970	-0.001819	0.000404	0.004317	0.279732	-0.241481	-0.968815	-1.109302	-0.667304	29.928414
19906	11941890	0.134909	-0.104508	9.841297	0.001997	-0.007567	0.029948				-1.109066	-0.668304	29.932730
19909	11941915	0.133290	-0.091539	9.830278	-0.019863	-0.003913	-0.004035				-1.110403	-0.669528	29.928792
19913	11941940	0.140059	-0.099311	9.837211	-0.021589	0.000855	0.009511				-1.113511	-0.669379	29.930150
19916	11941965	0.126785	-0.114288	9.845394	-0.014457	-0.004540	-0.005670	0.278321	-0.243428	-0.969363	-1.115572	-0.670045	29.929347
19920	11941990	0.132049	-0.097955	9.809714	0.003789	0.014850	-0.004758				-1.115021	-0.667931	29.928627
19923	11942015	0.122696	-0.102388	9.824753	-0.016163	-0.004913	0.005810				-1.114790	-0.673267	29.937367
19927	11942040	0.117417	-0.100812	9.809624	0.005297	-0.009359	0.003906				-1.114038	-0.674596	29.937953
19930	11942065	0.126276	-0.086102	9.834321	-0.013307	0.011794	-0.006936	0.278245	-0.242453	-0.971320	-1.115932	-0.672926	29.936927
19934	11942090	0.130457	-0.079350	9.817878	-0.018628	0.003116	0.001705				-1.118603	-0.672475	29.937163
19937	11942115	0.131870	-0.099359	9.833028	-0.009729	0.013393	-0.009109				-1.113885	-0.670452	29.937263
19941	11942140	0.131829	-0.095379	9.835771	-0.011840	0.016668	0.001425				-1.115583	-0.668060	29.937429
19944	11942165	0.129172	-0.100880	9.824790	-0.017838	0.019695	-0.013383	0.279211	-0.241480	-0.970302	-1.118115	-0.665277	29.935454
19948	11942190	0.131950	-0.090029	9.834373	-0.024198	0.001396	-0.009191				-1.121566	-0.665103	29.934131
19951	11942215	0.146928	-0.103254	9.833150	-0.013785	0.003873	-0.010329				-1.119868	-0.665831	29.936471
19955	11942240	0.151748	-0.072225	9.835829	-0.023358	0.015754	-0.001395				-1.123211	-0.663579	29.936230
19958	11942265	0.117114	-0.098345	9.832928	-0.011769	0.001106	0.000937	0.278757	-0.241962	-0.969821	-1.124899	-0.663418	29.936363
19962	11942290	0.126458	-0.090107	9.816507	-0.017118	0.006990	0.000878				-1.127352	-0.662414	29.936474
19965	11942315	0.144219	-0.099486	9.834482	-0.038354	-0.000910	-0.005019				-1.130958	-0.664918	29.936912
19969	11942340	0.137030	-0.096598	9.850887	-0.017165	0.006200	-0.009115				-1.133402	-0.664056	29.935590
19972	11942365	0.128858	-0.079158	9.837058	-0.008468	0.013460	-0.007845	0.278225	-0.242950	-0.972321	-1.134601	-0.662151	29.934428
19976	11942390	0.146754	-0.095274	9.835858	-0.026433	0.003758	0.005372				-1.138396	-0.661597	29.935187
19979	11942415	0.127809	-0.106232	9.841257	-0.025211	0.018589	0.012623				-1.137809	-0.659979	29.939002
19983	11942440	0.128911	-0.090222	9.815164	-0.024170	0.023508	-0.012694				-1.141250	-0.656648	29.937109
19986	11942465	0.150936	-0.093781	9.823549	-0.020707	0.012007	-0.006628	0.277735	-0.241462	-0.971794	-1.144204	-0.654948	29.936129
19990	11942490	0.136177	-0.107323	9.822119	-0.003937	0.004026	-0.005952				-1.144758	-0.654388	29.935261
19993	11942515	0.141326	-0.090044	9.827581	-0.029497	0.009143	0.020665				-1.149379	-0.654555	29.942211
19997	11942540	0.125559	-0.105106	9.809690	-0.025944	0.003801	0.002547				-1.153100	-0.654003	29.942564
20000	11942565	0.109882	-0.148298	9.805605	-0.008106	0.001378	0.019430	0.277722	-0.239983	-0.971264	-1.154293	-0.653750	29.945346
20004	11942590	0.102011	-0.170089	9.812487	-0.017992	0.005892	0.003165				-1.156874	-0.652896	29.945784
20007	11942615	0.133131	-0.161513	9.801696	-0.010751	0.010085	-0.015658				-1.153481	-0.653318	29.944521
20011	11942640	0.122015	-0.150530	9.837239	-0.001630	-0.000656	-0.000380				-1.153714	-0.653413	29.944466
20014	11942665	0.129939	-0.146471	9.837288	-0.003067	0.004044	0.003099	0.278692	-0.239997	-0.970765	-1.154158	-0.652825	29.944897
20018	11942690	0.098608	-0.131094	9.838392	-0.020532	0.007346	-0.018828				-1.157068	-0.651828	29.942173
20021	11942715	0.117795	-0.133167	9.835792	-0.008266	-0.009272	-0.007294				-1.155037	-0.654848	29.946742
20025	11942740	0.124410	-0.131918	9.830348	-0.021212	-0.001505	-0.007191				-1.158063	-0.655084	29.945719
20028	11942765	0.131181	-0.127536	9.834494	-0.005415	-0.008062	-0.005566	0.279220	-0.241972	-0.970314	-1.158830	-0.656255	29.944941
20032	11942790	0.109438	-0.145225	9.859093	-0.000465	0.006931	-0.006323				-1.158886	-0.655280	29.944006
20035	11942815	0.126950	-0.131665	9.850921	0.002049	0.002454	-0.015567				-1.158545	-0.656476	29.942672
20039	11942840	0.150130	-0.131123	9.841495	0.005060	-0.007321	0.009479				-1.157836	-0.657497	29.944060
20042	11942865	0.150321	-0.146079	9.841538	0.003089	-0.001289	0.011878	0.279178	-0.240498	-0.970774	-1.157413	-0.657647	29.945754
20046	11942890	0.146368	-0.142083	9.837380	0.002272	-0.009546	-0.000438				-1.157088	-0.659016	29.945721
20049	11942915	0.132235	-0.125003	9.838603	-0.012290	0.009032	-0.012498				-1.156335	-0.656939	29.945330
20053	11942940	0.140091	-0.120414	9.838651	0.017358	0.030729	-0.003736				-1.153841	-0.652549	29.944704
20056	11942965	0.119349	-0.143824	9.833089	0.005689	-0.016877	0.001784	0.279618	-0.240018	-0.971750	-1.153030	-0.654961	29.945002
20060	11942990	0.117382	-0.137359	9.837176	-0.011216	0.019620	-0.005296				-1.154627	-0.652167	29.944182
20063	11943015	0.127142	-0.147833	9.837273	-0.011316	0.022644	0.011398				-1.151470	-0.654577	29.948928
20067	11943040	0.121802	-0.141296	9.830350	-0.003918	0.005046	-0.012733				-1.152010	-0.653891	29.947095
20070	11943065	0.141838	-0.125814	9.829066	0.018656	0.013432	-0.016899	0.278686	-0.240492	-0.971271	-1.149310	-0.652016	29.944643
20074	11943090	0.135495	-0.123377	9.834497	0.005630	-0.024642	0.007512				-1.148516	-0.655524	29.945782
20077	11943115	0.124548	-0.135766	9.833099	-0.005470	-0.009437	0.003427				-1.148824	-0.652086	29.946964
20081	11943140	0.128592	-0.124793	9.837205	0.001679	-0.016682	0.012809				-1.148605	-0.654438	29.948841
20084	11943165	0.118941	-0.143711	9.855026	0.007746	0.011216	-0.006174	0.278714	-0.241969	-0.971306	-1.147485	-0.652850	29.947927
20088	11943190	0.132716	-0.141054	9.846891	-0.005834	-0.009429	-0.002879				-1.148316	-0.654208	29.947537
20091	11943215	0.087767	-0.141659	9.864403	-0.001229	0.004022	0.007576				-1.144010	-0.657281	29.952846
20095	11943240	0.384583	-0.040988	9.602814	-0.018398	0.025539	-0.008577				-1.146630	-0.653648	29.951547
20098	11943265	-0.146482	-0.001040	10.242258	0.006267	0.002709	0.008874	0.278723	-0.242461	-0.971317	-1.145747	-0.653235	29.952808
20102	11943290	0.253823	-0.038366	9.663595	0.026821	-0.058232	0.032762				-1.141961	-0.661481	29.957669
20105	11943315	0.431602	0.009642	9.612549	-0.020570	-0.005369	0.041188				-1.146719	-0.656764	29.960921
20109	11943340	-0.058896	-0.347773	9.913431	-0.044021	0.031874	0.017279				-1.153052	-0.652150	29.963299
20112	11943365	-0.033899	-0.343129	9.890268	-0.030430	0.004964	-0.022946	0.278737	-0.242459	-0.970823	-1.157373	-0.651505	29.959992
20116	11943390	0.149870	-0.146561	9.755142	-0.009757	-0.018568	-0.017852				-1.158742	-0.654216	29.957499
20119	11943415	0.151082	-0.050323	9.839867	0.007233	0.038712	-0.006731				-1.149671	-0.655747	29.966276
20123	11943440	0.125684	-0.139954	9.830375	-0.013611	0.020726	0.003637				-1.151626	-0.652768	29.966736
20126	11943465	0.080232	-0.123011	9.890352	-0.014958	0.016558	-0.007762	0.279694	-0.240994	-0.969793	-1.153755	-0.650419	29.965576
20130	11943490	0.108988	-0.120029	9.846662	-0.018159	0.016101	-0.012030				-1.156336	-0.648148	29.963800
20133	11943515	0.124331	-0.143965	9.845473	-0.020236	0.007501	-0.005344				-1.155144	-0.653590	29.964563
20137	11943540	0.094197	-0.125395	9.872630	-0.008850	0.001986	0.003131				-1.156417	-0.653296	29.965007
20140	11943565	0.160039	-0.142169	9.788106	-0.011118	0.005741	0.006229	0.279211	-0.241480	-0.970302	-1.158020	-0.652456	29.965893
20144	11943590	0.141661	-0.102156	9.811161	-0.020993	0.011434	0.026582				-1.161069	-0.650741	29.969655
20147	11943615	0.113404	-0.116932	9.843929	0.009300	-0.005178	0.007688				-1.156413	-0.652422	29.967832
20151	11943640	0.115499	-0.146533	9.812506	0.013863	-0.011608	0.002861				-1.154432	-0.654076	29.968281
20154	11943665	0.138199	-0.138418	9.822233	-0.010519	-0.002719	0.005440	0.277286	-0.241449	-0.970806	-1.155948	-0.654449	29.969072
20158	11943690	0.132580	-0.151790	9.841440	-0.010540	0.008026	0.010170				-1.157474	-0.653271	29.970500
20161	11943715	0.108873	-0.166961	9.816633	0.008100	0.002772	-0.003466				-1.154964	-0.653865	29.974981
20165	11943740	0.120818	-0.154732	9.815297	0.002627	0.007953	-0.010160				-1.154570	-0.652756	29.973502
20168	11943765	0.107846	-0.135934	9.831617	0.003321	0.031988	-0.008775	0.279215	-0.242467	-0.970820	-1.154079	-0.648200	29.972157
20172	11943790	0.124086	-0.127244	9.839932	0.022154	0.010024	-0.010601				-1.150889	-0.646795	29.970616
20175	11943815	0.109305	-0.118306	9.850766	0.012031	-0.005201	0.002372				-1.151020	-0.649274	29.976415
20179	11943840	0.133334	-0.105660	9.830324	0.018388	0.017591	-0.006320				-1.148376	-0.646773	29.975456
20182	11943865	0.130942	-0.125975	9.860533	0.006770	-0.007121	0.001812	0.278260	-0.242451	-0.970825	-1.147409	-0.647788	29.975742
20186	11943890	0.130030	-0.126241	9.826252	-0.003497	-0.004810	0.006354				-1.147921	-0.648459	29.976664
20189	11943915	0.147211	-0.126978	9.857909	0.013809	-0.001313	-0.009245				-1.139360	-0.648111	29.975413
20193	11943940	0.129236	-0.104564	9.841261	0.008470	0.005054	-0.000718				-1.138146	-0.647389	29.975297
20196	11943965	0.155649	-0.127119	9.822308	0.004163	-0.008172	0.002711	0.277280	-0.241944	-0.971313	-1.137554	-0.648552	29.975706
20200	11943990	0.126615	-0.107454	9.828917	-0.002564	0.009993	-0.015108				-1.137897	-0.647164	29.973519
20203	11944015	0.140724	-0.117917	9.831778	0.006205	-0.014837	0.012708				-1.134333	-0.652825	29.981014
20207	11944040	0.126086	-0.123710	9.827575	-0.002685	-0.024930	0.000171				-1.134719	-0.656395	29.981113
20210	11944065	0.177377	-0.116224	9.794996	0.002483	-0.004835	0.018676	0.277749	-0.241460	-0.971299	-1.134393	-0.657035	29.983795
20214	11944090	0.099272	-0.068869	9.812135	0.004062	-0.001960	-0.000493				-1.133811	-0.657317	29.983722
20217	11944115	0.103806	-0.202141	9.827681	-0.000775	0.003988	0.010337				-1.131999	-0.656560	29.985480
20221	11944140	0.114724	-0.048075	9.867038	0.006773	0.001861	-0.006284				-1.131018	-0.656311	29.984580
20224	11944165	0.190124	-0.142944	9.751288	0.008187	0.014381	-0.005831	0.279687	-0.242970	-0.971324	-1.129836	-0.654268	29.983707
20228	11944190	0.049701	-0.143416	9.899817	-0.000042	-0.010960	0.000100				-1.129842	-0.655837	29.983759
20231	11944215	0.185593	-0.117471	9.778597	0.006947	0.000934	-0.001824				-1.125390	-0.655934	29.985868
20235	11944240	0.102230	-0.107741	9.846571	0.005066	0.005747	0.018874				-1.124695	-0.655058	29.988554
20238	11944265	0.112168	-0.113079	9.832938	-0.003290	-0.013235	-0.002684	0.277791	-0.242935	-0.970839	-1.125162	-0.656961	29.988207
20242	11944290	0.140205	-0.115249	9.823542	-0.001241	0.015074	0.008082				-1.125353	-0.654780	29.989309
20245	11944315	0.120003	-0.116852	9.834373	0.006337	0.014102	0.014283				-1.121420	-0.657982	29.992865
20249	11944340	0.135427	-0.130556	9.815317	-0.016080	-0.001062	-0.009893				-1.123706	-0.658162	29.991450
20252	11944365	0.129676	-0.116730	9.812511	0.005159	0.001617	0.005485	0.276817	-0.241933	-0.970820	-1.122977	-0.657915	29.992232
20256	11944390	0.120587	-0.141031	9.841311	0.010128	-0.007761	-0.001429				-1.121524	-0.659030	29.992052
20259	11944415	0.128441	-0.124798	9.831720	-0.001362	0.000535	-0.000052				-1.120499	-0.657167	29.995782
20263	11944440	0.118938	-0.138536	9.852270	-0.005777	-0.002192	0.011246				-1.121345	-0.657450	29.997410
20266	11944465	0.129273	-0.118333	9.849536	-0.021198	0.016548	0.006038	0.276336	-0.240938	-0.970305	-1.124391	-0.655063	29.998226
20270	11944490	0.121687	-0.118310	9.831656	-0.004143	-0.011104	0.000402				-1.124985	-0.656652	29.998309
20273	11944515	0.127113	-0.118166	9.819351	0.003050	-0.007430	-0.009236				-1.119623	-0.658778	29.999161
20277	11944540	0.125189	-0.118416	9.844020	-0.009473	0.017880	-0.002344				-1.120975	-0.656224	29.998779
20280	11944565	0.143197	-0.115110	9.819447	0.011835	0.002356	0.016382	0.277778	-0.241455	-0.970309	-1.119307	-0.655841	30.001116
20284	11944590	0.129759	-0.125036	9.819391	-0.013073	0.004664	-0.003898				-1.121173	-0.655184	30.000546
20287	11944615	0.098583	-0.134744	9.854855	0.004451	-0.001451	-0.008199				-1.116388	-0.659169	30.002454
20291	11944640	0.116950	-0.110314	9.839829	-0.009502	0.017612	-0.012082				-1.117728	-0.656681	30.000679
20294	11944665	0.129864	-0.122257	9.812519	0.003842	0.004189	-0.015320	0.278777	-0.241465	-0.968820	-1.117153	-0.656124	29.998475
20298	11944690	0.132395	-0.115607	9.798800	-0.005758	0.018705	-0.000963				-1.117975	-0.653447	29.998293
20301	11944715	0.120026	-0.102239	9.806901	-0.007255	0.004649	0.018676				-1.117227	-0.656255	30.002976
20305	11944740	0.126901	-0.116790	9.809745	0.009076	0.012138	-0.009741				-1.115911	-0.654544	30.001542
20308	11944765	0.125529	-0.112909	9.811091	0.002262	0.016612	-0.014350	0.277792	-0.241453	-0.969814	-1.115563	-0.652205	29.999442
20312	11944790	0.118412	-0.109077	9.839832	-0.018904	0.013711	0.002542				-1.118274	-0.650234	29.999769
20315	11944815	0.137670	-0.105991	9.813895	-0.002763	0.006996	0.000742				-1.113920	-0.650031	30.001873
20319	11944840	0.105003	-0.110534	9.854818	-0.003718	0.007820	0.003016				-1.114458	-0.648902	30.002287
20322	11944865	0.134625	-0.092201	9.822060	0.021531	0.006063	-0.008239	0.279206	-0.241975	-0.970809	-1.111360	-0.648057	30.001096
20326	11944890	0.110885	-0.134580	9.853573	-0.002915	-0.009963	-0.004105				-1.111771	-0.649495	30.000536
20329	11944915	0.120105	-0.122257	9.831650	0.011455	0.010696	-0.008136				-1.109555	-0.646082	30.002665
20333	11944940	0.122944	-0.120894	9.820696	0.002055	0.005652	0.002992				-1.109265	-0.645264	30.003086
20336	11944965	0.133919	-0.139406	9.838661	0.015585	0.007576	-0.003247	0.279202	-0.240988	-0.970291	-1.107027	-0.644188	30.002594
20340	11944990	0.116177	-0.118275	9.846701	-0.000353	-0.013584	-0.003161				-1.107073	-0.646142	30.002178
20343	11945015	0.120397	-0.130217	9.827566	0.015074	0.003111	-0.001626				-1.102415	-0.646689	30.004141
20347	11945040	0.145998	-0.051879	9.839831	0.001349	0.010620	-0.008148				-1.102208	-0.645191	30.002946
20350	11945065	0.130791	-0.104739	9.824808	-0.005095	0.008608	-0.013140	0.276790	-0.240456	-0.970785	-1.102917	-0.643994	30.001045
20354	11945090	0.110513	-0.121294	9.834322	-0.002670	0.011681	0.017497				-1.103327	-0.642273	30.003513
20357	11945115	0.120220	-0.119570	9.839870	-0.000046	-0.013316	0.007167				-1.100120	-0.649338	30.004300
20361	11945140	0.124540	-0.134246	9.824861	0.018445	0.001921	-0.003852				-1.097471	-0.649074	30.003740
20364	11945165	0.107149	-0.145638	9.819295	-0.011553	0.001043	-0.013886	0.279164	-0.240500	-0.971269	-1.099104	-0.648962	30.001757
20368	11945190	0.109710	-0.144002	9.844001	-0.004724	-0.009520	0.000536				-1.099782	-0.650324	30.001858
20371	11945215	0.108158	-0.129147	9.820626	0.011161	0.001930	0.003564				-1.095061	-0.648456	30.007039
20375	11945240	0.119371	-0.130286	9.812474	0.014524	-0.016128	0.004347				-1.092988	-0.650754	30.007709
20378	11945265	0.128463	-0.133064	9.837222	0.003104	-0.003313	-0.014618	0.279656	-0.240506	-0.970772	-1.092519	-0.651268	30.005621
20382	11945290	0.109793	-0.137292	9.809692	0.008862	-0.005469	0.004411				-1.091257	-0.652039	30.006275
20385	11945315	0.121704	-0.126360	9.841271	-0.007549	-0.004135	0.011005				-1.091437	-0.654692	30.009733
20389	11945340	0.132612	-0.115408	9.815253	0.013712	-0.006846	0.012772				-1.089494	-0.655638	30.011574
20392	11945365	0.167675	-0.107973	9.827820	0.009540	-0.012480	0.003634	0.278695	-0.240984	-0.971283	-1.088134	-0.657415	30.012130
20396	11945390	0.132415	-0.122038	9.837216	0.005789	-0.006317	0.009733				-1.087321	-0.658293	30.013538
20399	11945415	0.140766	-0.112685	9.816669	0.005500	-0.027597	0.000142				-1.083228	-0.663637	30.015462
20403	11945440	0.115940	-0.123530	9.853573	0.007567	-0.003274	-0.017928				-1.082114	-0.664155	30.012892
20406	11945465	0.124554	-0.118369	9.819338	-0.008464	-0.021067	0.002943	0.279184	-0.240003	-0.970267	-1.083332	-0.667163	30.013378
20410	11945490	0.132789	-0.127364	9.830393	0.003953	-0.017856	-0.011685				-1.082747	-0.669753	30.011746
20413	11945515	0.124433	-0.116959	9.819325	0.000738	-0.009437	0.009829				-1.079573	-0.670865	30.018542
20417	11945540	0.139035	-0.109826	9.834492	0.008851	-0.009061	0.005162				-1.078314	-0.672149	30.019305
20420	11945565	0.156794	-0.124423	9.831917	0.000110	-0.000194	0.001696	0.281159	-0.243483	-0.970339	-1.078301	-0.672172	30.019550
20424	11945590	0.136533	-0.116696	9.819402	0.005178	0.001483	0.010307				-1.077577	-0.671932	30.021034
20427	11945615	0.123049	-0.122161	9.826190	0.009026	-0.007169	0.007437				-1.073579	-0.677266	30.021722
20431	11945640	0.123354	-0.138323	9.828986	0.012003	-0.008421	0.005008				-1.071869	-0.678459	30.022465
20434	11945665	0.134885	-0.114963	9.842708	0.025427	0.001098	-0.009112	0.279764	-0.243946	-0.969368	-1.068211	-0.678326	30.021160
20438	11945690	0.114741	-0.136048	9.833034	-0.007087	0.015751	-0.004299				-1.069219	-0.676082	30.020500
20441	11945715	0.131398	-0.127765	9.824888	-0.007808	-0.013149	-0.014062				-1.065727	-0.681503	30.023319
20445	11945740	0.121681	-0.127711	9.833066	-0.001661	-0.003187	-0.009497				-1.065948	-0.681985	30.021970
20448	11945765	0.102994	-0.142775	9.828850	0.007834	-0.002280	-0.002514	0.278762	-0.241467	-0.969315	-1.064822	-0.682318	30.021617
20452	11945790	0.132715	-0.129155	9.816678	-0.015694	0.001971	-0.018626				-1.067038	-0.682086	30.018943
20455	11945815	0.143573	-0.139352	9.823646	0.003633	0.001019	-0.011615				-1.062436	-0.681454	30.021522
20459	11945840	0.135261	-0.109938	9.800170	0.014023	0.000860	-0.013283				-1.060405	-0.681366	30.019613
20462	11945865	0.125688	-0.126158	9.841297	0.006242	-0.009298	-0.009786	0.280190	-0.241987	-0.969814	-1.059494	-0.682724	30.018243
20466	11945890	0.144457	-0.102969	9.816676	0.003965	-0.004420	0.009671				-1.058943	-0.683331	30.019635
20469	11945915	0.121532	-0.135545	9.828964	0.020085	0.027126	-0.008906				-1.055965	-0.680124	30.016614
20473	11945940	0.126772	-0.104617	9.824781	0.016825	-0.001425	0.002007				-1.053558	-0.680322	30.016890
20476	11945965	0.149742	-0.105791	9.826314	-0.007670	0.002676	-0.013310	0.280672	-0.242982	-0.970330	-1.054634	-0.679974	30.014984
20480	11945990	0.128261	-0.116887	9.827579	-0.012212	-0.002362	0.002295				-1.056388	-0.680306	30.015321
20483	11946015	0.128307	-0.118114	9.828951	0.006661	-0.000261	-0.006129				-1.050267	-0.682129	30.018024
20487	11946040	0.143564	-0.140560	9.838733	0.014459	-0.006214	0.010696				-1.048214	-0.682990	30.019569
20490	11946065	0.129616	-0.122059	9.845436	0.004922	-0.005920	-0.010997	0.278771	-0.241960	-0.969326	-1.047491	-0.683867	30.018015
20494	11946090	0.116582	-0.138588	9.824826	-0.002910	-0.008336	0.003076				-1.047913	-0.685053	30.018474
20497	11946115	0.130267	-0.146461	9.826311	0.000168	-0.009979	0.014938				-1.046396	-0.687082	30.023066
20501	11946140	0.120258	-0.122652	9.819306	-0.015748	-0.000644	-0.006084				-1.048641	-0.687190	30.022201
20504	11946165	0.127013	-0.118083	9.822090	0.008830	-0.002842	-0.009418	0.278733	-0.241472	-0.970304	-1.047360	-0.687622	30.020863
20508	11946190	0.116446	-0.121102	9.808308	0.008005	-0.009196	-0.010672				-1.046196	-0.688967	30.019356
20511	11946215	0.139233	-0.110047	9.815275	-0.002512	-0.001931	0.009626				-1.045311	-0.690551	30.025079
20515	11946240	0.126656	-0.108957	9.837142	-0.015163	0.005130	0.008726				-1.047498	-0.689793	30.026317
20518	11946265	0.119785	-0.100652	9.832963	0.005178	0.002772	-0.001100	0.278732	-0.242953	-0.971329	-1.046754	-0.689399	30.026144
20522	11946290	0.135969	-0.089738	9.827548	0.002486	-0.001459	-0.020391				-1.046363	-0.689661	30.023218
20525	11946315	0.132136	-0.101989	9.831669	-0.001326	0.004782	-0.010331				-1.042914	-0.691576	30.025883
20529	11946340	0.140320	-0.108503	9.827638	0.001660	-0.000119	-0.007509				-1.042663	-0.691613	30.024806
20532	11946365	0.147250	-0.115080	9.835932	-0.000484	-0.007181	0.003199	0.279233	-0.243452	-0.970843	-1.042738	-0.692633	30.025286
20536	11946390	0.109177	-0.117133	9.841167	-0.001967	0.001577	-0.008984				-1.043004	-0.692430	30.024000
20539	11946415	0.130339	-0.103113	9.842638	0.015247	0.016005	-0.009315				-1.037298	-0.692117	30.023503
20543	11946440	0.147389	-0.133810	9.857934	0.006352	-0.006205	-0.003219				-1.036383	-0.693014	30.023050
20546	11946465	0.148568	-0.107156	9.838651	-0.010347	-0.013740	0.002797	0.278203	-0.240978	-0.971780	-1.037871	-0.694974	30.023491
20550	11946490	0.143349	-0.113938	9.830415	-0.002500	-0.017780	0.005856				-1.038240	-0.697506	30.024378
20553	11946515	0.126800	-0.098247	9.819283	-0.009850	-0.006358	-0.008507				-1.036686	-0.697193	30.023185
20557	11946540	0.129307	-0.101952	9.837139	0.005747	-0.002356	-0.009269				-1.035847	-0.697554	30.021875
20560	11946565	0.133395	-0.103413	9.824824	-0.014430	0.011042	-0.011623	0.278245	-0.242453	-0.971320	-1.037893	-0.696003	30.020170
20564	11946590	0.128236	-0.116867	9.850889	-0.010157	-0.009093	-0.017750				-1.039317	-0.697351	30.017655
20567	11946615	0.141573	-0.103039	9.852317	-0.001387	-0.008135	-0.010885				-1.035595	-0.701215	30.022246
20571	11946640	0.134800	-0.104913	9.824844	-0.020242	0.005147	0.002311				-1.038499	-0.700472	30.022568
20574	11946665	0.129691	-0.118082	9.833079	-0.000092	0.001229	0.008997	0.278312	-0.242936	-0.969352	-1.038528	-0.700273	30.023852
20578	11946690	0.133689	-0.106070	9.813866	-0.003468	-0.005043	-0.011428				-1.039005	-0.701025	30.022234
20581	11946715	0.154075	-0.105665	9.827720	-0.005576	-0.013891	-0.006077				-1.037895	-0.705113	30.023060
20585	11946740	0.168842	-0.116503	9.818250	-0.019430	0.012414	-0.001195				-1.040675	-0.703338	30.022857
20588	11946765	0.130953	-0.128572	9.850958	0.008824	-0.000599	-0.013715	0.278299	-0.241457	-0.968822	-1.039387	-0.703459	30.020893
20592	11946790	0.117263	-0.112761	9.835724	0.001259	0.012416	-0.013930				-1.039182	-0.701717	30.018864
20595	11946815	0.152032	-0.084248	9.829007	-0.005759	-0.000402	-0.004052				-1.037837	-0.705765	30.020921
20599	11946840	0.160251	-0.090824	9.842800	-0.009654	0.001886	0.013745				-1.039244	-0.705459	30.022887
20602	11946865	0.124692	-0.134647	9.824863	-0.018631	-0.009438	-0.015627	0.278304	-0.240962	-0.968316	-1.041886	-0.706851	30.020677
20606	11946890	0.134555	-0.080317	9.828882	-0.000463	-0.004612	-0.015809				-1.041924	-0.707553	30.018425
20609	11946915	0.149984	-0.115151	9.846923	-0.002661	-0.021106	0.001776				-1.039221	-0.709613	30.021362
20613	11946940	0.106606	-0.120002	9.846640	-0.012544	-0.007418	0.003248				-1.041024	-0.710667	30.021849
20616	11946965	0.122942	-0.127583	9.845411	-0.001770	0.000304	-0.008368	0.279215	-0.242467	-0.970820	-1.041262	-0.710645	30.020650
20620	11946990	0.130384	-0.098978	9.835766	0.023660	0.015420	-0.011635				-1.037852	-0.708467	30.018937
20623	11947015	0.145594	-0.100249	9.824894	0.014493	0.003864	0.010525				-1.036399	-0.712250	30.022444
20627	11947040	0.147010	-0.104558	9.822173	-0.005119	0.008476	-0.002940				-1.037127	-0.711044	30.022012
20630	11947065	0.156775	-0.119046	9.838750	-0.003262	-0.008136	0.001875	0.279665	-0.240998	-0.970783	-1.037598	-0.712204	30.022297
20634	11947090	0.146714	-0.086764	9.828980	0.008661	0.000700	-0.012106				-1.036336	-0.712135	30.020572
20637	11947115	0.139506	-0.108837	9.807052	-0.011942	-0.020412	-0.005426				-1.033045	-0.714447	30.022015
20641	11947140	0.132369	-0.105999	9.824834	0.008522	-0.015277	-0.021051				-1.031787	-0.716689	30.019040
20644	11947165	0.127457	-0.137170	9.808437	0.001228	-0.006808	-0.012855	0.278766	-0.242454	-0.969833	-1.031588	-0.717697	30.017218
20648	11947190	0.147510	-0.116740	9.818111	-0.011657	-0.010192	-0.021690				-1.033220	-0.719213	30.014141
20651	11947215	0.131135	-0.115141	9.826216	0.015584	-0.004274	-0.004755				-1.025242	-0.719737	30.017594
20655	11947240	0.125547	-0.100993	9.819276	-0.013289	-0.006415	0.001241				-1.027148	-0.720652	30.017774
20658	11947265	0.134968	-0.091218	9.800116	-0.002384	-0.005883	-0.017263	0.277360	-0.243907	-0.969874	-1.027458	-0.721539	30.015314
20662	11947290	0.135183	-0.112526	9.823494	0.012593	-0.011322	-0.005850				-1.025645	-0.723176	30.014504
20665	11947315	0.149641	-0.103080	9.840019	-0.009076	-0.005293	0.006719				-1.027560	-0.725278	30.016178
20669	11947340	0.135162	-0.118135	9.830372	-0.006758	-0.000317	-0.001222				-1.028526	-0.725327	30.016003
20672	11947365	0.137688	-0.101853	9.830338	-0.001256	-0.016999	-0.002070	0.277824	-0.243917	-0.970367	-1.028702	-0.727767	30.015754
20676	11947390	0.144614	-0.114044	9.824932	-0.012290	-0.006363	-0.021102				-1.030424	-0.728732	30.012742
20679	11947415	0.120087	-0.118287	9.837121	0.001496	0.000775	-0.009531				-1.023815	-0.730798	30.015990
20683	11947440	0.133742	-0.118132	9.816655	0.003529	0.005813	-0.002976				-1.023303	-0.729973	30.015553
20686	11947465	0.144901	-0.115227	9.819458	0.005099	-0.023144	-0.001279	0.279698	-0.241981	-0.970311	-1.022571	-0.733291	30.015425
20690	11947490	0.144522	-0.117751	9.829070	0.017357	0.009795	0.015789				-1.020114	-0.731848	30.017665
20693	11947515	0.160526	-0.099126	9.808538	-0.015716	0.006235	0.014296				-1.023730	-0.734805	30.016363
20697	11947540	0.134778	-0.116871	9.835857	-0.019652	0.016803	-0.007121				-1.026531	-0.732417	30.015302
20700	11947565	0.110234	-0.106220	9.865820	0.001176	-0.000706	-0.007917	0.280668	-0.241995	-0.969812	-1.026348	-0.732539	30.014165
20704	11947590	0.124517	-0.122282	9.831680	-0.002737	-0.009643	-0.013493				-1.026716	-0.733954	30.012260
20707	11947615	0.147422	-0.116709	9.800278	-0.008570	0.002465	-0.028603				-1.022225	-0.732296	30.014636
20711	11947640	0.099008	-0.156572	9.848079	-0.019793	-0.005651	-0.007387				-1.025047	-0.733124	30.013590
20714	11947665	0.140103	-0.101854	9.838576	-0.007029	0.007620	0.004587	0.278777	-0.241465	-0.968820	-1.026062	-0.732021	30.014227
20718	11947690	0.139301	-0.126321	9.812588	-0.013053	0.013062	0.007081				-1.027945	-0.730132	30.015214
20721	11947715	0.117674	-0.134548	9.841274	-0.001547	-0.000809	-0.018230				-1.023779	-0.735076	30.012336
20725	11947740	0.116932	-0.076537	9.820519	0.002337	-0.006591	0.006862				-1.023457	-0.736002	30.013336
20728	11947765	0.140314	-0.122322	9.830422	-0.016835	0.016280	-0.019339	0.277792	-0.241453	-0.969814	-1.025832	-0.733721	30.010522
20732	11947790	0.135057	-0.135699	9.834538	-0.007208	0.019264	-0.004643				-1.026856	-0.730973	30.009810
20735	11947815	0.145801	-0.097946	9.823523	-0.017154	-0.010595	-0.016899				-1.027303	-0.734868	30.011759
20739	11947840	0.105378	-0.126509	9.843906	0.009312	-0.001192	0.026925				-1.026019	-0.734970	30.015608
20742	11947865	0.120935	-0.095495	9.846662	-0.011362	0.003117	-0.010346	0.277802	-0.241945	-0.969826	-1.027628	-0.734550	30.014119
20746	11947890	0.108111	-0.126533	9.826096	0.001062	0.003590	0.002670				-1.027480	-0.734029	30.014484
20749	11947915	0.141246	-0.096565	9.844064	-0.015354	0.006916	0.008990				-1.028030	-0.732263	30.017213
