// Start Time: Unknown
// Update Rate: Various
// Filter Profile: general (39.15)
// Option Flags: AHS Disabled ICC Disabled 
// Firmware Version: 1.10.0
PacketCounter	SampleTimeFine	Acc_X	Acc_Y	Acc_Z	Gyr_X	Gyr_Y	Gyr_Z	Mag_X	Mag_Y	Mag_Z	Roll	Pitch	Yaw
31864	8269303	0.096298	-0.028675	9.823565	0.000930	-0.007795	-0.005500				-0.381424	-0.548476	31.792891
31868	8269328	0.090589	-0.035434	9.838636	0.003564	0.006032	-0.010994	0.294971	-0.244465	-0.923288	-0.380898	-0.547623	31.791308
31871	8269353	0.075794	-0.040812	9.841286	0.017355	0.014785	-0.007148				-0.378402	-0.545512	31.790274
31875	8269378	0.083794	-0.021068	9.828933	-0.013870	0.010325	0.011347				-0.379894	-0.546309	31.793305
31878	8269403	0.107398	-0.036630	9.820914	-0.005282	-0.019741	-0.006162				-0.380642	-0.549142	31.792444
31882	8269428	0.090890	-0.053104	9.844172	-0.006966	0.004472	-0.009595	0.295472	-0.244963	-0.922803	-0.381627	-0.548511	31.791059
31885	8269453	0.085381	-0.049121	9.849618	-0.012429	0.001575	-0.006339				-0.383398	-0.548291	31.790154
31889	8269478	0.082778	-0.055735	9.850981	0.004764	0.008908	0.013201				-0.376244	-0.546654	31.792084
31892	8269503	0.061072	-0.046753	9.841205	0.001067	0.004284	0.008397				-0.376102	-0.546032	31.793282
31896	8269528	0.087945	-0.027433	9.833093	0.007914	0.001994	0.003077	0.296429	-0.243498	-0.921774	-0.374973	-0.545744	31.793727
31899	8269553	0.074523	-0.043806	9.842659	0.005889	0.002986	-0.008519				-0.374118	-0.545324	31.792497
31903	8269578	0.075815	-0.038661	9.828938	-0.014123	0.012472	-0.000465				-0.376544	-0.545280	31.792952
31906	8269603	0.073267	-0.046835	9.837179	-0.019187	0.000159	0.013080				-0.379310	-0.545245	31.794828
31910	8269628	0.079927	-0.033101	9.813866	-0.003794	0.015672	-0.006638	0.296406	-0.243008	-0.922257	-0.379844	-0.543006	31.793861
31913	8269653	0.086602	-0.039680	9.834506	-0.008720	0.016853	0.004323				-0.381099	-0.540588	31.794465
31917	8269678	0.089608	-0.056081	9.830463	-0.023483	0.012450	0.000459				-0.380130	-0.542345	31.792924
31920	8269703	0.074658	-0.052039	9.839952	-0.012496	0.006403	0.004177				-0.381926	-0.541424	31.793515
31924	8269728	0.078634	-0.049183	9.834472	-0.005554	0.020999	-0.010671	0.296442	-0.244977	-0.922303	-0.382707	-0.538426	31.791964
31927	8269753	0.065249	-0.056194	9.820689	-0.000250	0.012189	-0.009665				-0.382729	-0.536689	31.790565
31931	8269778	0.085549	-0.039785	9.831752	-0.012463	-0.013189	-0.017425				-0.383500	-0.539455	31.790328
31934	8269803	0.082630	-0.029106	9.822104	-0.012261	-0.002186	-0.007403				-0.385247	-0.539775	31.789269
31938	8269828	0.099658	-0.069119	9.815490	-0.003375	-0.000766	0.009529	0.296958	-0.245473	-0.921323	-0.385743	-0.539876	31.790637
31941	8269853	0.084517	-0.080062	9.853822	-0.003359	0.000054	0.007434				-0.386234	-0.539861	31.791702
31945	8269878	0.065424	-0.052057	9.838507	0.001746	-0.016788	-0.001463				-0.383290	-0.542087	31.789318
31948	8269903	0.070556	-0.072158	9.864676	-0.006630	0.012305	-0.010438				-0.384225	-0.540335	31.787805
31952	8269928	0.086113	-0.065255	9.834579	-0.000933	-0.012949	0.001492	0.295062	-0.245438	-0.920837	-0.384361	-0.542188	31.788041
31955	8269953	0.098110	-0.061101	9.834661	-0.007915	-0.013447	0.011531				-0.385511	-0.544103	31.789702
31959	8269978	0.083038	-0.073366	9.837331	-0.007823	0.015751	-0.012255				-0.383733	-0.541470	31.787547
31962	8270003	0.066872	-0.048004	9.820681	0.003432	-0.009760	-0.004581				-0.383235	-0.542873	31.786897
31966	8270028	0.077291	-0.038486	9.813859	0.004086	0.005063	-0.007716	0.295987	-0.246941	-0.922847	-0.382639	-0.542155	31.785781
31969	8270053	0.091120	-0.049050	9.822220	-0.006080	0.003037	0.004219				-0.383516	-0.541716	31.786388
31973	8270078	0.093522	-0.047514	9.834583	0.001585	0.006449	-0.000122				-0.381338	-0.544687	31.787664
31976	8270103	0.078929	-0.062796	9.835894	-0.011933	0.012290	0.005023				-0.383054	-0.542922	31.788373
31980	8270128	0.069462	-0.061551	9.833080	-0.003411	0.005266	-0.020559	0.296909	-0.245975	-0.923314	-0.383515	-0.542188	31.785425
31983	8270153	0.076028	-0.046615	9.844057	-0.004600	-0.008540	-0.010243				-0.384160	-0.543421	31.783968
31987	8270178	0.081770	-0.065507	9.841408	-0.028966	-0.000376	-0.007455				-0.386307	-0.543351	31.785182
31990	8270203	0.088573	-0.055958	9.829081	-0.009967	-0.017014	0.003429				-0.387739	-0.545784	31.785694
31994	8270228	0.082876	-0.050542	9.837257	-0.006273	0.000450	-0.010465	0.295959	-0.245464	-0.922812	-0.388624	-0.545730	31.784190
31997	8270253	0.072036	-0.045288	9.834425	-0.002702	-0.007418	-0.002812				-0.389007	-0.546795	31.783797
32001	8270278	0.069490	-0.056027	9.831696	0.001210	-0.010017	-0.007717				-0.386861	-0.549946	31.781888
32004	8270303	0.084391	-0.045179	9.822158	-0.007091	-0.004548	0.015584				-0.387898	-0.550583	31.784122
32008	8270328	0.073479	-0.069451	9.831771	-0.000346	0.014246	-0.015716	0.293585	-0.245420	-0.922329	-0.387926	-0.548557	31.781857
32011	8270353	0.084422	-0.065402	9.842800	-0.012349	0.005518	0.020677				-0.389723	-0.547747	31.784811
32015	8270378	0.084091	-0.035702	9.827612	-0.008890	-0.005375	0.006673				-0.387367	-0.551926	31.782676
32018	8270403	0.081904	-0.068029	9.826338	-0.004253	0.000443	-0.003432				-0.387972	-0.551866	31.782183
32022	8270428	0.098028	-0.073043	9.829198	0.006443	0.010964	-0.020553	0.294575	-0.244938	-0.920828	-0.387020	-0.550316	31.779233
32025	8270453	0.050448	-0.076635	9.863178	-0.014567	0.007538	0.001624				-0.389109	-0.549234	31.779459
32029	8270478	0.088187	-0.036808	9.831751	0.007802	0.003116	-0.011626				-0.385460	-0.550611	31.780798
32032	8270503	0.094081	-0.077319	9.834669	-0.006999	0.001423	0.000672				-0.386464	-0.550406	31.780898
32036	8270528	0.093711	-0.061104	9.844214	-0.002161	0.004391	-0.008354	0.295096	-0.244939	-0.919341	-0.386762	-0.549785	31.779698
32039	8270553	0.077728	-0.068409	9.812577	-0.010942	0.014670	0.001118				-0.388330	-0.547683	31.779845
32043	8270578	0.076671	-0.073525	9.818089	-0.006130	0.002785	0.008644				-0.387516	-0.549837	31.781342
32046	8270603	0.088333	-0.074633	9.841489	-0.003938	0.024749	0.002792				-0.388084	-0.546289	31.781726
32050	8270628	0.083147	-0.070813	9.840057	-0.007725	0.000636	-0.010858	0.295052	-0.244946	-0.920826	-0.389175	-0.546209	31.780167
32053	8270653	0.064156	-0.076765	9.834464	-0.032486	0.008105	-0.000563				-0.393828	-0.545048	31.780080
32057	8270678	0.069156	-0.061485	9.845421	-0.004323	0.017892	-0.014767				-0.389119	-0.543098	31.778354
32060	8270703	0.102281	-0.085136	9.837496	0.005667	0.016315	-0.005205				-0.388300	-0.540766	31.777593
32064	8270728	0.099520	-0.074465	9.823717	0.001477	0.007580	0.004236	0.296945	-0.243994	-0.920793	-0.388094	-0.539676	31.778194
32067	8270753	0.099640	-0.078416	9.823742	0.002210	0.008245	0.004898				-0.387784	-0.538490	31.778883
32071	8270778	0.080555	-0.079978	9.844197	0.007759	-0.001703	0.002082				-0.389414	-0.540297	31.778662
32074	8270803	0.081485	-0.057240	9.827660	0.008532	0.014204	-0.017762				-0.388168	-0.538280	31.776112
32078	8270828	0.100792	-0.051542	9.833264	-0.007202	-0.019103	-0.011058	0.298353	-0.245010	-0.922294	-0.389185	-0.541027	31.774544
32081	8270853	0.084207	-0.046506	9.833127	0.002384	0.001766	0.008936				-0.388855	-0.540766	31.775825
32085	8270878	0.092388	-0.051703	9.827732	-0.006382	0.001675	0.002010				-0.387567	-0.541139	31.775755
32088	8270903	0.091282	-0.055840	9.820875	-0.005586	-0.009407	0.008817				-0.388379	-0.542478	31.777022
32092	8270928	0.081748	-0.050421	9.830389	0.005181	-0.011085	-0.012903	0.296413	-0.244982	-0.923293	-0.387619	-0.544079	31.775186
32095	8270953	0.089830	-0.057103	9.845551	-0.009829	-0.013737	-0.008383				-0.389016	-0.546054	31.774000
32099	8270978	0.092439	-0.065129	9.849710	-0.006282	0.010723	-0.000969				-0.385964	-0.543822	31.776494
32102	8271003	0.073502	-0.053161	9.824850	0.014350	-0.000392	0.000231				-0.383909	-0.543878	31.776535
32106	8271028	0.065195	-0.045328	9.826138	0.005317	0.007346	-0.008479	0.296003	-0.245457	-0.921327	-0.383136	-0.542834	31.775308
32109	8271053	0.072248	-0.056189	9.824864	-0.007713	-0.003228	0.005782				-0.384248	-0.543290	31.776135
32113	8271078	0.072827	-0.085760	9.822215	-0.006573	-0.015153	0.001799				-0.383251	-0.548518	31.774626
32116	8271103	0.081727	-0.055949	9.834519	-0.003013	-0.012518	0.006798				-0.383692	-0.550304	31.775604
32120	8271128	0.070604	-0.041229	9.841256	-0.000660	-0.008610	0.009589	0.296022	-0.244960	-0.920326	-0.383800	-0.551528	31.776990
32123	8271153	0.077158	-0.050673	9.850939	-0.016661	0.016758	-0.011875				-0.386170	-0.549139	31.775276
32127	8271178	0.086868	-0.039781	9.844113	-0.019503	-0.015235	-0.010611				-0.385467	-0.555717	31.776551
32130	8271203	0.080361	-0.058583	9.834519	-0.007638	-0.006638	0.003050				-0.386566	-0.556665	31.776996
32134	8271228	0.089860	-0.057231	9.835960	-0.011143	-0.011615	-0.005166	0.296495	-0.245463	-0.920830	-0.388155	-0.558334	31.776270
32137	8271253	0.065394	-0.046734	9.833007	0.000060	-0.013378	-0.004956				-0.388140	-0.560255	31.775575
32141	8271278	0.076177	-0.049448	9.826234	-0.013006	-0.004134	-0.016588				-0.390140	-0.558092	31.772415
32144	8271303	0.073241	-0.057459	9.834459	-0.005467	0.022690	-0.017789				-0.390898	-0.554859	31.769841
32148	8271328	0.078734	-0.061439	9.844120	-0.007075	0.013807	-0.014125	0.296527	-0.246445	-0.920359	-0.391892	-0.552895	31.767805
32151	8271353	0.092448	-0.061273	9.825015	-0.010164	0.009076	-0.025767				-0.393312	-0.551621	31.764104
32155	8271378	0.081377	-0.047646	9.850955	-0.005500	0.001970	0.000526				-0.390440	-0.556073	31.767443
32158	8271403	0.078572	-0.049002	9.853675	0.006257	0.003310	0.002269				-0.389546	-0.555596	31.767761
32162	8271428	0.076224	-0.069547	9.848236	-0.010230	0.005294	-0.005028	0.296533	-0.245951	-0.919852	-0.391005	-0.554843	31.767043
32165	8271453	0.099093	-0.051532	9.835996	0.003007	0.003843	0.002964				-0.390578	-0.554289	31.767454
32169	8271478	0.077559	-0.081388	9.851025	0.004530	0.015114	0.009485				-0.389564	-0.552933	31.764943
32172	8271503	0.059604	-0.052095	9.861781	0.002819	0.007316	-0.008328				-0.389149	-0.551893	31.763743
32176	8271528	0.092251	-0.060913	9.844202	0.009766	0.016938	-0.003153	0.295555	-0.243962	-0.919315	-0.387745	-0.549470	31.763271
32179	8271553	0.094920	-0.034212	9.834546	-0.004491	-0.000015	0.006031				-0.388397	-0.549466	31.764141
32183	8271578	0.089670	-0.058175	9.849679	0.006118	-0.007610	0.011238				-0.384233	-0.551535	31.765626
32186	8271603	0.085692	-0.057131	9.837296	0.003117	0.007832	-0.003026				-0.383782	-0.550416	31.765179
32190	8271628	0.092417	-0.048917	9.837316	-0.000413	-0.007641	-0.018914	0.294604	-0.244933	-0.919838	-0.383816	-0.551528	31.762484
32193	8271653	0.096686	-0.050351	9.822260	-0.003903	-0.005537	-0.016220				-0.384352	-0.552337	31.760156
32197	8271678	0.081891	-0.070865	9.824972	-0.007550	0.001439	0.003089				-0.383328	-0.552854	31.763998
32200	8271703	0.081238	-0.042629	9.850946	-0.024733	-0.002535	-0.004528				-0.386864	-0.553222	31.763349
32204	8271728	0.064808	-0.038575	9.845318	0.000721	0.012867	-0.009882	0.295577	-0.245934	-0.919857	-0.386747	-0.551388	31.761926
32207	8271753	0.084562	-0.055830	9.818082	0.000456	-0.009462	-0.010130				-0.386668	-0.552753	31.760487
32211	8271778	0.068912	-0.034623	9.841233	-0.010134	0.004476	-0.002952				-0.386506	-0.553097	31.759378
32214	8271803	0.093342	-0.037747	9.844149	0.027072	0.012097	-0.009070				-0.382616	-0.551373	31.758066
32218	8271828	0.082246	-0.012608	9.830269	0.006059	0.012714	0.007267	0.297497	-0.246460	-0.919859	-0.381758	-0.549545	31.759091
32221	8271853	0.077253	-0.043873	9.823470	0.002266	0.020660	-0.001861				-0.381430	-0.546588	31.758801
32225	8271878	0.075636	-0.031996	9.842634	-0.023077	0.006890	-0.009266				-0.382745	-0.551470	31.756532
32228	8271903	0.090540	-0.022091	9.823507	0.000340	-0.002174	-0.010356				-0.382682	-0.551792	31.755037
32232	8271928	0.105728	-0.016618	9.815356	-0.007413	-0.009558	0.013189	0.297975	-0.246468	-0.919857	-0.383763	-0.553148	31.756942
32235	8271953	0.088066	-0.023269	9.828977	0.011170	-0.011170	0.000148				-0.382163	-0.554748	31.756961
32239	8271978	0.086757	-0.042275	9.827653	0.011241	0.006229	-0.003128				-0.379594	-0.550840	31.756387
32242	8272003	0.085220	-0.039820	9.837235	-0.006959	0.006887	-0.001898				-0.380588	-0.549855	31.756108
32246	8272028	0.085195	-0.033249	9.820759	-0.021179	0.009626	0.001316	0.298476	-0.246966	-0.919371	-0.383624	-0.548475	31.756295
32249	8272053	0.077174	-0.026539	9.834401	-0.014207	-0.003549	-0.001889				-0.385656	-0.548985	31.756025
32253	8272078	0.066110	-0.033465	9.848063	-0.023627	0.000620	-0.001736				-0.383180	-0.551526	31.756299
32256	8272103	0.080123	-0.038682	9.819365	-0.016084	0.005530	-0.014390				-0.385464	-0.550748	31.754234
32260	8272128	0.065181	-0.047937	9.833020	0.005391	-0.000578	-0.010595	0.297049	-0.246447	-0.918872	-0.384677	-0.550841	31.752722
32263	8272153	0.107161	-0.032511	9.815413	0.006381	0.001101	-0.006504				-0.383754	-0.550690	31.751788
32267	8272178	0.090678	-0.039194	9.853734	0.022382	-0.001781	0.003216				-0.381281	-0.553141	31.753093
32270	8272203	0.096314	-0.039552	9.838681	-0.004362	-0.002110	-0.005028				-0.381899	-0.553448	31.752373
32274	8272228	0.085031	-0.023510	9.839932	-0.003569	0.019123	0.018100	0.297990	-0.246466	-0.919362	-0.382435	-0.550692	31.754952
32277	8272253	0.124192	-0.025536	9.831973	-0.005107	0.026658	0.002863				-0.383170	-0.546871	31.755336
32281	8272278	0.097623	-0.034091	9.838681	-0.003822	-0.007117	-0.006962				-0.379822	-0.553104	31.753246
32284	8272303	0.089632	-0.047710	9.840039	-0.006498	-0.004715	-0.011119				-0.380738	-0.553790	31.751649
32288	8272328	0.104416	-0.020567	9.813990	0.002724	-0.017294	0.017653	0.298511	-0.246467	-0.917875	-0.380372	-0.556251	31.754198
32291	8272353	0.090782	-0.037164	9.841379	-0.019453	-0.006427	-0.005749				-0.383151	-0.557177	31.753377
32295	8272378	0.079613	-0.023511	9.842637	0.004342	0.012840	0.010495				-0.378273	-0.552119	31.756284
32298	8272403	0.086394	-0.019596	9.837181	-0.014624	0.005203	0.006734				-0.380377	-0.551367	31.757238
32302	8272428	0.099134	-0.046334	9.820895	-0.012390	0.002398	0.011025	0.298545	-0.245968	-0.916379	-0.382167	-0.551013	31.758821
32305	8272453	0.083905	-0.038388	9.828993	0.006132	0.010459	-0.007474				-0.381278	-0.549522	31.757743
32309	8272478	0.111117	-0.035371	9.842889	-0.016266	0.000651	0.003214				-0.385052	-0.553381	31.758691
32312	8272503	0.074805	-0.040109	9.824822	-0.016221	-0.003743	0.010327				-0.387390	-0.553907	31.760174
32316	8272528	0.089999	-0.053223	9.831832	-0.014850	-0.023365	0.002405	0.296167	-0.244937	-0.915377	-0.389521	-0.557251	31.760537
32319	8272553	0.081443	-0.045098	9.835855	0.004059	-0.007464	-0.002177				-0.388936	-0.558322	31.760234
32323	8272578	0.104209	-0.044974	9.831905	-0.019357	0.030023	-0.011362				-0.389160	-0.553009	31.758045
32326	8272603	0.082981	-0.045300	9.818050	-0.009586	-0.005643	0.015661				-0.390555	-0.553802	31.760289
32330	8272628	0.094880	-0.043727	9.820852	-0.006206	0.017105	0.017186	0.296096	-0.243467	-0.916827	-0.391467	-0.551335	31.762736
32333	8272653	0.104535	-0.047504	9.840146	-0.016782	-0.004067	-0.010791				-0.393856	-0.551928	31.761193
32337	8272678	0.112710	-0.045931	9.833328	0.000523	-0.003318	0.001052				-0.388582	-0.554418	31.762796
32340	8272703	0.058388	-0.063170	9.859070	-0.023796	0.004689	-0.008653				-0.391978	-0.553755	31.761558
32344	8272728	0.074795	-0.067889	9.857829	0.009464	0.000624	-0.001961	0.296082	-0.243469	-0.917322	-0.390620	-0.553668	31.761272
32347	8272753	0.084277	-0.049240	9.835902	-0.012811	-0.008100	0.007708				-0.392465	-0.554820	31.762387
32351	8272778	0.065181	-0.053294	9.844001	0.005886	0.000693	-0.016098				-0.389915	-0.555714	31.757720
32354	8272803	0.074831	-0.064104	9.842735	-0.008877	0.008306	0.008638				-0.391198	-0.554516	31.758945
32358	8272828	0.072185	-0.074657	9.838634	0.014596	0.009879	-0.014764	0.295173	-0.244433	-0.916360	-0.389087	-0.553116	31.756826
32361	8272853	0.068217	-0.068374	9.824867	-0.002190	0.009668	0.007862				-0.389412	-0.551723	31.757945
32365	8272878	0.094313	-0.056952	9.809915	0.014748	-0.021358	-0.007415				-0.386582	-0.558872	31.757148
32368	8272903	0.061205	-0.042624	9.828848	0.011127	-0.010540	-0.002477				-0.384985	-0.560384	31.756802
32372	8272928	0.094175	-0.062484	9.830507	0.002901	-0.015739	0.000811	0.296123	-0.244944	-0.916862	-0.384570	-0.562637	31.756940
32375	8272953	0.067972	-0.045409	9.844002	-0.007601	-0.011086	-0.001369				-0.385657	-0.564227	31.756745
32379	8272978	0.061440	-0.073722	9.837183	0.008391	0.006984	0.006877				-0.381474	-0.561775	31.759269
32382	8273003	0.069377	-0.052174	9.820712	-0.006011	0.009742	0.018542				-0.382361	-0.560362	31.761919
32386	8273028	0.071857	-0.035906	9.817935	-0.001463	0.004199	0.001697	0.297092	-0.246440	-0.917387	-0.382573	-0.559759	31.762154
32389	8273053	0.091047	-0.049276	9.815370	-0.016133	0.002214	-0.009213				-0.384871	-0.559451	31.760826
32393	8273078	0.062981	-0.070921	9.830321	0.006828	-0.001019	-0.010799				-0.380439	-0.563041	31.760624
32396	8273103	0.068308	-0.083061	9.827653	-0.001119	0.018448	-0.008209				-0.380588	-0.560407	31.759434
32400	8273128	0.084627	-0.084283	9.833263	-0.011775	0.009283	-0.008385	0.297106	-0.246438	-0.916892	-0.382262	-0.559085	31.758220
32403	8273153	0.055971	-0.079104	9.837172	0.000066	0.016500	-0.014988				-0.382232	-0.556736	31.756064
32407	8273178	0.076442	-0.080139	9.856508	-0.008203	-0.003654	-0.022979				-0.383474	-0.560859	31.753887
32410	8273203	0.096566	-0.062456	9.825047	-0.009473	0.010747	-0.016178				-0.384808	-0.559335	31.751557
32414	8273228	0.069370	-0.058541	9.845419	0.008643	0.002277	-0.027728	0.298100	-0.246942	-0.915909	-0.383532	-0.559035	31.747583
32417	8273253	0.077713	-0.055945	9.829013	-0.003916	-0.007521	-0.001596				-0.384090	-0.560114	31.747364
32421	8273278	0.060394	-0.084623	9.826237	0.000121	-0.000532	-0.004464				-0.381250	-0.558302	31.745032
32424	8273303	0.066734	-0.065568	9.842687	-0.006473	0.000997	-0.006983				-0.382167	-0.558166	31.744026
32428	8273328	0.066919	-0.075082	9.846823	-0.010084	0.003831	0.000143	0.297155	-0.245936	-0.914901	-0.383612	-0.557617	31.744046
32431	8273353	0.082143	-0.085826	9.838732	-0.020459	-0.002167	-0.007962				-0.386531	-0.557935	31.742905
32435	8273378	0.087055	-0.057227	9.833191	-0.012912	0.001861	-0.004195				-0.383786	-0.559969	31.743465
32438	8273403	0.064134	-0.079060	9.841335	-0.004949	0.009830	-0.011852				-0.384478	-0.558573	31.741746
32442	8273428	0.084622	-0.074839	9.830490	-0.012384	-0.001715	-0.003448	0.296663	-0.245930	-0.915398	-0.386247	-0.558822	31.741257
32445	8273453	0.083111	-0.056026	9.824928	-0.005098	-0.012225	-0.012378				-0.386960	-0.560585	31.739497
32449	8273478	0.081745	-0.061326	9.831791	-0.001155	-0.006685	0.003149				-0.387108	-0.561630	31.740739
32452	8273503	0.083234	-0.065397	9.823586	-0.012401	-0.011946	-0.006706				-0.388875	-0.563347	31.739792
32456	8273528	0.088515	-0.069177	9.846962	-0.002483	0.001185	-0.007197	0.295716	-0.246406	-0.915414	-0.389220	-0.563185	31.738759
32459	8273553	0.076671	-0.082854	9.833205	0.005494	-0.003536	0.007732				-0.388444	-0.563684	31.739882
32463	8273578	0.076047	-0.047719	9.823486	0.013556	0.004241	-0.005217				-0.385755	-0.565881	31.736444
32466	8273603	0.081579	-0.052022	9.823531	-0.011113	0.007811	0.003958				-0.387353	-0.564759	31.737012
32470	8273628	0.079074	-0.067919	9.834531	0.008152	0.006029	-0.011231	0.295678	-0.245918	-0.916393	-0.386169	-0.563906	31.735394
32473	8273653	0.074911	-0.069252	9.840009	0.017405	0.000389	0.014366				-0.383696	-0.563836	31.737449
32477	8273678	0.095067	-0.067728	9.845618	0.003791	0.015177	-0.011294				-0.382606	-0.563777	31.735098
32480	8273703	0.084722	-0.084160	9.842864	-0.011131	-0.002126	-0.006670				-0.384191	-0.564088	31.734138
32484	8273728	0.083307	-0.077538	9.842830	-0.006542	-0.002986	-0.006229	0.296105	-0.243959	-0.916839	-0.385119	-0.564522	31.733256
32487	8273753	0.088720	-0.074660	9.842859	-0.004534	-0.002633	0.003758				-0.385774	-0.564895	31.733790
32491	8273778	0.085445	-0.050410	9.850990	-0.010340	0.004576	-0.011259				-0.381883	-0.565343	31.733936
32494	8273803	0.080637	-0.069306	9.827696	0.006479	-0.012103	0.009902				-0.380969	-0.567067	31.735371
32498	8273828	0.084621	-0.073412	9.826366	-0.004844	-0.002107	-0.011404	0.296578	-0.244462	-0.917343	-0.381646	-0.567379	31.733734
32501	8273853	0.085613	-0.062590	9.829082	-0.001065	0.009455	-0.014810				-0.381778	-0.566039	31.731608
32505	8273878	0.073559	-0.058696	9.833105	-0.000459	0.005342	-0.008507				-0.380126	-0.568531	31.733299
32508	8273903	0.057229	-0.061485	9.828887	0.010106	0.015375	0.005423				-0.378686	-0.566324	31.734056
32512	8273928	0.095278	-0.058595	9.818162	-0.009984	0.010738	-0.011076	0.296176	-0.245430	-0.915389	-0.380100	-0.564796	31.732465
32515	8273953	0.086989	-0.045279	9.822181	-0.017373	-0.003962	0.000471				-0.382590	-0.565364	31.732536
32519	8273978	0.077502	-0.055745	9.834485	0.016157	0.007586	0.004616				-0.375695	-0.563900	31.731206
32522	8274003	0.089587	-0.039666	9.831773	-0.004044	-0.004916	0.006312				-0.376284	-0.564598	31.732118
32526	8274028	0.078742	-0.045179	9.824866	-0.003770	0.001997	0.005548	0.297642	-0.246437	-0.914910	-0.376831	-0.564307	31.732913
32529	8274053	0.084170	-0.031842	9.813879	-0.017770	-0.000572	-0.000402				-0.379376	-0.564389	31.732855
32533	8274078	0.084684	-0.053247	9.812590	-0.003266	-0.015683	-0.000092				-0.377560	-0.568656	31.733186
32536	8274103	0.099060	-0.044852	9.824997	-0.003812	0.000100	0.003342				-0.378110	-0.568638	31.733669
32540	8274128	0.081507	-0.052226	9.830391	-0.014909	0.006697	-0.010778	0.297627	-0.246439	-0.915405	-0.380231	-0.567689	31.732121
32543	8274153	0.088183	-0.052022	9.822215	-0.016807	0.015703	-0.012875				-0.382620	-0.565453	31.730258
32547	8274178	0.084481	-0.049131	9.822172	-0.005084	-0.000106	-0.002353				-0.381271	-0.569324	31.731920
32550	8274203	0.073216	-0.046903	9.849516	-0.023341	0.001146	-0.015812				-0.384592	-0.569175	31.729661
32554	8274228	0.062452	-0.046684	9.826125	0.006014	0.008765	0.005464	0.297586	-0.244964	-0.915865	-0.383738	-0.567914	31.730432
32557	8274253	0.098085	-0.056903	9.825031	0.008015	-0.013548	-0.004047				-0.382585	-0.569859	31.729870
32561	8274278	0.082928	-0.045126	9.834491	-0.005315	-0.006068	-0.002868				-0.384656	-0.568084	31.728369
32564	8274303	0.075886	-0.041362	9.827583	-0.018723	0.005446	0.004199				-0.387344	-0.567299	31.728966
32568	8274328	0.063694	-0.052100	9.856333	-0.001104	0.009581	0.010806	0.297624	-0.245452	-0.914887	-0.387517	-0.565917	31.730500
32571	8274353	0.078785	-0.037075	9.839937	-0.004917	-0.015245	-0.004517				-0.388215	-0.568105	31.729870
32575	8274378	0.089455	-0.027480	9.828999	0.002262	-0.016981	-0.005892				-0.383802	-0.571833	31.729325
32578	8274403	0.090814	-0.045286	9.830439	-0.023401	0.011127	0.005420				-0.387161	-0.570235	31.730093
32582	8274428	0.077295	-0.055948	9.848203	-0.008689	0.014627	-0.012849	0.297169	-0.245934	-0.914406	-0.388387	-0.568152	31.728240
32585	8274453	0.085632	-0.062595	9.852404	-0.005302	0.007144	-0.004524				-0.389140	-0.567133	31.727578
32589	8274478	0.079732	-0.036984	9.826219	-0.001977	0.026754	-0.006156				-0.387130	-0.568048	31.726920
32592	8274503	0.097902	-0.040806	9.822241	-0.002034	-0.012416	-0.005609				-0.387413	-0.569832	31.726128
32596	8274528	0.085480	-0.038471	9.827625	-0.001426	0.001967	-0.014652	0.297217	-0.246914	-0.913439	-0.387596	-0.569564	31.724030
32599	8274553	0.100836	-0.059758	9.838777	-0.016716	-0.017069	-0.004175				-0.389985	-0.572013	31.723450
32603	8274578	0.097272	-0.024723	9.835901	-0.009416	0.010537	-0.000288				-0.387467	-0.568570	31.723538
32606	8274603	0.081293	-0.046691	9.830385	-0.019518	0.011837	-0.028813				-0.390222	-0.566903	31.719403
32610	8274628	0.101672	-0.041042	9.816780	-0.022192	0.018828	-0.014398	0.297220	-0.247901	-0.913958	-0.393380	-0.564220	31.717323
32613	8274653	0.094867	-0.042338	9.831834	-0.016817	0.006302	-0.003451				-0.395784	-0.563321	31.716824
32617	8274678	0.092442	-0.051718	9.834586	-0.009435	0.001167	-0.003536				-0.394885	-0.568040	31.716468
32620	8274703	0.082563	-0.042411	9.844078	-0.001566	0.008062	-0.004609				-0.395102	-0.566889	31.715799
32624	8274728	0.075884	-0.038629	9.844032	-0.014324	-0.004853	-0.008596	0.298158	-0.246933	-0.913930	-0.397142	-0.567593	31.714567
32627	8274753	0.079832	-0.038636	9.848168	-0.028843	-0.001813	-0.003704				-0.401268	-0.567857	31.714040
32631	8274778	0.088048	-0.043837	9.842764	-0.015661	0.001800	-0.027259				-0.399520	-0.567997	31.710380
32634	8274803	0.079555	-0.031862	9.844037	-0.025132	0.019869	-0.005740				-0.403112	-0.565157	31.709526
32638	8274828	0.097488	-0.031804	9.826325	-0.027062	0.004631	0.007072	0.299109	-0.245962	-0.913407	-0.406998	-0.564486	31.710543
32641	8274853	0.085288	-0.023499	9.826212	-0.002809	-0.006042	-0.002077				-0.407398	-0.565354	31.710249
32645	8274878	0.072232	-0.051978	9.842671	-0.004542	-0.022824	-0.011939				-0.409527	-0.569565	31.708547
32648	8274903	0.069106	-0.044033	9.828915	-0.003593	0.008284	-0.008836				-0.410029	-0.568387	31.707268
32652	8274928	0.098926	-0.020783	9.818069	-0.010318	-0.006300	-0.015719	0.299516	-0.244500	-0.914855	-0.411485	-0.569306	31.705025
32655	8274953	0.101788	-0.023302	9.820845	-0.003740	-0.014575	-0.024442				-0.411986	-0.571419	31.701533
32659	8274978	0.113693	-0.021823	9.823656	-0.009386	-0.000359	-0.008230				-0.410986	-0.571767	31.703789
32662	8275003	0.087010	-0.034325	9.822145	-0.007670	-0.015986	0.003417				-0.412090	-0.574053	31.704303
32666	8275028	0.100734	-0.065089	9.838804	-0.010483	-0.005414	-0.002572	0.300007	-0.245988	-0.915382	-0.413588	-0.574831	31.703943
32669	8275053	0.089338	-0.043518	9.829043	0.010878	0.017624	-0.003301				-0.412025	-0.572310	31.703444
32673	8275078	0.090978	-0.055640	9.833207	0.004989	0.009385	-0.013036				-0.411124	-0.577146	31.698748
32676	8275103	0.088313	-0.047876	9.831801	-0.014171	-0.003722	-0.003968				-0.413148	-0.577684	31.698176
32680	8275128	0.096586	-0.059415	9.838756	0.015104	-0.004770	0.011115	0.297656	-0.246434	-0.914415	-0.411000	-0.578355	31.699783
32683	8275153	0.087329	-0.065162	9.840075	0.004663	-0.016445	0.015895				-0.410356	-0.580695	31.702075
32687	8275178	0.096650	-0.055914	9.823650	-0.017929	-0.011452	-0.000168				-0.409774	-0.579008	31.699409
32690	8275203	0.095266	-0.057144	9.827762	-0.007422	0.000073	-0.008577				-0.410825	-0.579007	31.698184
32694	8275228	0.074523	-0.045300	9.842682	-0.011589	0.004841	0.007859	0.298125	-0.245950	-0.914401	-0.412496	-0.578305	31.699297
32697	8275253	0.056983	-0.054977	9.831608	-0.007285	0.012936	-0.018896				-0.413512	-0.576472	31.696578
32701	8275278	0.097632	-0.056902	9.827777	0.007233	0.029203	-0.016192				-0.408559	-0.578011	31.699462
32704	8275303	0.083831	-0.035602	9.835842	-0.002538	0.015181	-0.013354				-0.408904	-0.575850	31.697534
32708	8275328	0.084527	-0.064078	9.844173	-0.019622	-0.007960	-0.014992	0.298617	-0.245956	-0.913904	-0.411693	-0.577006	31.695398
32711	8275353	0.089696	-0.046559	9.812604	-0.012498	-0.000338	-0.002986				-0.413479	-0.577057	31.694978
32715	8275378	0.083974	-0.047712	9.840003	-0.002615	0.015898	-0.002626				-0.410848	-0.574430	31.692484
32718	8275403	0.100613	-0.059697	9.841536	-0.008750	-0.002518	0.010490				-0.412116	-0.574780	31.693995
32722	8275428	0.107261	-0.051611	9.825075	-0.009404	0.005946	0.001208	0.299128	-0.246947	-0.913430	-0.413465	-0.573927	31.694162
32725	8275453	0.070507	-0.064020	9.842704	0.005046	0.017250	-0.010985				-0.412726	-0.571468	31.692573
32729	8275478	0.085590	-0.061404	9.842801	-0.013809	0.007880	-0.003940				-0.414991	-0.574387	31.693301
32732	8275503	0.073376	-0.050627	9.838565	-0.004211	0.006996	-0.017545				-0.415569	-0.573403	31.690783
32736	8275528	0.079229	-0.054600	9.805703	0.009821	-0.007851	-0.007100	0.299124	-0.245960	-0.912912	-0.414152	-0.574535	31.689770
32739	8275553	0.098888	-0.038281	9.831846	-0.011474	0.006384	0.006114				-0.415804	-0.573614	31.690643
32743	8275578	0.067967	-0.062748	9.834452	0.001651	0.004084	0.004102				-0.410950	-0.573019	31.688963
32746	8275603	0.071966	-0.052118	9.827585	-0.008920	0.013334	0.004661				-0.412235	-0.571104	31.689615
32750	8275628	0.085793	-0.061388	9.835944	-0.014324	-0.002620	0.002332	0.299153	-0.245955	-0.911922	-0.414290	-0.571477	31.689945
32753	8275653	0.080059	-0.051926	9.837252	-0.007491	0.006673	-0.006257				-0.415354	-0.570528	31.689040
32757	8275678	0.076228	-0.049402	9.835841	-0.013129	-0.015299	0.005852				-0.415599	-0.574273	31.691920
32760	8275703	0.084413	-0.061530	9.818102	-0.014858	0.014797	-0.002284				-0.417724	-0.572156	31.691574
32764	8275728	0.089946	-0.067958	9.815414	-0.006151	0.010085	0.002249	0.298221	-0.246429	-0.911444	-0.418608	-0.570709	31.691890
32767	8275753	0.066840	-0.048083	9.827537	0.009155	-0.010860	-0.010318				-0.417282	-0.572276	31.690425
32771	8275778	0.073197	-0.037263	9.831659	-0.009288	-0.003307	0.010148				-0.418784	-0.571756	31.692677
32774	8275803	0.084355	-0.053106	9.841387	0.000827	-0.008595	0.004420				-0.418672	-0.572982	31.693322
32778	8275828	0.070702	-0.049302	9.833055	-0.002612	0.002757	-0.011165	0.298673	-0.247429	-0.912949	-0.419030	-0.572599	31.691724
32781	8275853	0.064988	-0.044320	9.845339	-0.024319	0.011072	0.009310				-0.422527	-0.571003	31.693044
32785	8275878	0.061434	-0.046918	9.822013	-0.010833	-0.016491	-0.001872				-0.417020	-0.578061	31.690169
32788	8275903	0.077573	-0.050812	9.839966	-0.022832	-0.004929	-0.011836				-0.420274	-0.578779	31.688479
32792	8275928	0.074951	-0.065349	9.845479	-0.010358	-0.012249	-0.001347	0.299605	-0.246955	-0.913428	-0.421756	-0.580535	31.688299
32795	8275953	0.066440	-0.062952	9.853642	-0.011709	0.006545	0.004491				-0.423439	-0.579593	31.688934
32799	8275978	0.112580	-0.055165	9.838843	0.007416	0.014886	-0.006019				-0.421948	-0.578345	31.688940
32802	8276003	0.087376	-0.076006	9.830506	0.004818	0.000511	-0.013408				-0.421239	-0.578286	31.687027
32806	8276028	0.068377	-0.069816	9.822128	-0.020361	0.005792	0.011390	0.299104	-0.246457	-0.913913	-0.424172	-0.577445	31.688653
32809	8276053	0.065732	-0.080635	9.839983	-0.019424	-0.000554	0.006376				-0.426963	-0.577517	31.689565
32813	8276078	0.080157	-0.054405	9.837257	0.004105	-0.002626	-0.012453				-0.423016	-0.578423	31.687704
32816	8276103	0.095310	-0.057190	9.820896	-0.003916	0.001898	-0.007127				-0.423567	-0.578159	31.686677
32820	8276128	0.096767	-0.081378	9.834701	-0.012079	0.012808	-0.019258	0.299574	-0.244491	-0.912875	-0.425269	-0.576345	31.683902
32823	8276153	0.085713	-0.073322	9.841469	0.000505	0.011203	-0.014827				-0.425175	-0.574756	31.681771
32827	8276178	0.081905	-0.068012	9.833193	0.000532	-0.001755	-0.007010				-0.425741	-0.578208	31.684045
32830	8276203	0.067077	-0.068146	9.826231	0.007072	-0.005524	0.004643				-0.424735	-0.578994	31.684726
32834	8276228	0.055079	-0.074063	9.835767	-0.019626	-0.024341	-0.008304	0.300090	-0.244987	-0.911895	-0.427534	-0.582490	31.683563
32837	8276253	0.084539	-0.074782	9.835964	-0.004686	0.004299	0.000986				-0.428207	-0.581873	31.683697
32841	8276278	0.073729	-0.072228	9.834527	-0.004514	0.001493	0.008103				-0.425866	-0.582209	31.682802
32844	8276303	0.076155	-0.053399	9.816648	-0.002393	0.005917	0.000897				-0.426210	-0.581361	31.682924
32848	8276328	0.061356	-0.057628	9.815182	0.003257	0.005218	-0.010204	0.299650	-0.245467	-0.910919	-0.425728	-0.580624	31.681459
32851	8276353	0.087620	-0.078818	9.834631	-0.009155	-0.014275	-0.007240				-0.427030	-0.582676	31.680436
32855	8276378	0.064519	-0.086011	9.823523	-0.012708	0.003067	-0.004269				-0.425982	-0.581103	31.681222
32858	8276403	0.082613	-0.048995	9.835877	0.003625	0.010131	-0.000693				-0.425462	-0.579653	31.681122
32862	8276428	0.076404	-0.073499	9.852373	0.003102	-0.002517	-0.001454	0.299594	-0.243994	-0.911874	-0.425015	-0.580015	31.680922
32865	8276453	0.068058	-0.046721	9.830282	-0.001572	-0.004423	-0.002694				-0.425237	-0.580651	31.680539
32869	8276478	0.105833	-0.054235	9.840165	-0.007835	-0.000426	-0.006028				-0.425196	-0.583666	31.679234
32872	8276503	0.068150	-0.064226	9.839945	-0.013615	0.001009	0.004929				-0.427153	-0.583516	31.679944
32876	8276528	0.084179	-0.043654	9.834496	0.006752	-0.013502	-0.008675	0.299102	-0.243988	-0.912371	-0.426174	-0.585459	31.678718
32879	8276553	0.065081	-0.050773	9.850862	-0.005594	0.010665	0.004520				-0.426982	-0.583927	31.679350
32883	8276578	0.075545	-0.034357	9.842639	0.003409	0.023404	0.007716				-0.423684	-0.584265	31.679694
32886	8276603	0.067645	-0.039902	9.827505	0.010000	0.016807	-0.012621				-0.422233	-0.581871	31.677865
32890	8276628	0.092010	-0.034258	9.834528	-0.006032	0.000088	-0.007585	0.299143	-0.245463	-0.911911	-0.423086	-0.581867	31.676784
32893	8276653	0.086841	-0.027667	9.828988	-0.008304	-0.012952	-0.011416				-0.424259	-0.583734	31.675160
32897	8276678	0.089046	-0.024989	9.830363	-0.016192	0.013249	-0.006704				-0.423970	-0.579974	31.676631
32900	8276703	0.089372	-0.045079	9.852367	-0.016129	0.007664	0.010023				-0.426295	-0.578866	31.678050
32904	8276728	0.097665	-0.052872	9.842844	0.001724	0.005889	0.012355	0.297694	-0.246922	-0.913437	-0.426066	-0.578009	31.679823
32907	8276753	0.086731	-0.044779	9.845492	0.011946	0.007990	0.000143				-0.424355	-0.576864	31.679831
32911	8276778	0.082795	-0.059809	9.835909	0.006586	0.015688	-0.016683				-0.424037	-0.579177	31.676021
32914	8276803	0.098590	-0.028423	9.837288	0.015588	0.018753	-0.004065				-0.421798	-0.576495	31.675421
32918	8276828	0.050217	-0.053639	9.827438	0.010808	0.013407	-0.014964	0.299122	-0.247442	-0.913937	-0.420228	-0.574590	31.673260
32921	8276853	0.088247	-0.047709	9.837282	-0.002030	0.004269	-0.004259				-0.420513	-0.573983	31.672644
32925	8276878	0.073390	-0.031788	9.816555	0.003618	-0.012594	-0.000620				-0.415764	-0.576780	31.673456
32928	8276903	0.085563	-0.045238	9.826288	-0.010024	-0.003800	-0.018753				-0.417173	-0.577344	31.670767
32932	8276928	0.081485	-0.041129	9.822130	-0.002705	0.002928	0.006072	0.299129	-0.245465	-0.912406	-0.417569	-0.576918	31.671642
32935	8276953	0.074964	-0.045386	9.824843	-0.008808	-0.018685	0.006111				-0.418840	-0.579588	31.672530
32939	8276978	0.097753	-0.050104	9.827759	0.003579	0.006251	-0.003025				-0.415101	-0.576948	31.670813
32942	8277003	0.096250	-0.036782	9.826328	0.009657	0.000486	-0.006254				-0.413709	-0.576885	31.669910
32946	8277028	0.091093	-0.051755	9.830462	0.001189	-0.004321	-0.002438	0.297710	-0.245438	-0.911918	-0.413535	-0.577507	31.669573
32949	8277053	0.088445	-0.063846	9.833226	-0.011745	-0.003165	-0.023700				-0.415183	-0.577985	31.666177
32953	8277078	0.093918	-0.054201	9.837352	-0.000247	-0.005361	0.009717				-0.412620	-0.582464	31.672098
32956	8277103	0.108505	-0.031144	9.827772	0.004625	-0.009738	0.004542				-0.411964	-0.583854	31.672759
32960	8277128	0.108373	-0.048743	9.847032	-0.009650	0.000983	-0.004745	0.298174	-0.245449	-0.912410	-0.413340	-0.583718	31.672082
32963	8277153	0.097994	-0.048748	9.829116	0.014290	-0.006023	0.009438				-0.411306	-0.584571	31.673440
32967	8277178	0.097864	-0.059594	9.818183	0.012368	0.011910	0.004029				-0.410987	-0.584015	31.669495
32970	8277203	0.079985	-0.037083	9.826221	-0.001073	0.007458	0.001085				-0.411142	-0.582946	31.669641
32974	8277228	0.096115	-0.036755	9.837299	0.002371	0.000364	0.004989	0.300092	-0.247456	-0.913437	-0.410809	-0.582889	31.670353
32977	8277253	0.063859	-0.046611	9.834373	0.009663	-0.003572	-0.005038				-0.409418	-0.583405	31.669636
32981	8277278	0.096249	-0.046201	9.834584	0.002539	0.011191	-0.006653				-0.406167	-0.583675	31.670912
32984	8277303	0.089362	-0.032709	9.846852	0.001954	-0.006381	-0.006662				-0.405878	-0.584596	31.669963
32988	8277328	0.077138	-0.021122	9.831645	-0.019637	-0.016885	-0.006652	0.299118	-0.246455	-0.913419	-0.408681	-0.587021	31.669028
32991	8277353	0.091674	-0.020446	9.833107	0.018170	0.011857	-0.020489				-0.406048	-0.585343	31.666076
32995	8277378	0.077206	-0.043687	9.842682	0.002524	0.000973	-0.005618				-0.404684	-0.588933	31.667723
32998	8277403	0.092165	-0.046308	9.848285	-0.001101	-0.000601	-0.010489				-0.404826	-0.589030	31.666219
33002	8277428	0.081234	-0.046561	9.834499	-0.007677	0.009532	-0.002176	0.298059	-0.243985	-0.915345	-0.405922	-0.587667	31.665892
33005	8277453	0.084439	-0.061196	9.837296	0.000371	0.007059	0.012818				-0.405888	-0.586642	31.667730
33009	8277478	0.104504	-0.050163	9.833277	-0.002359	0.002764	-0.015853				-0.401368	-0.587138	31.660891
33012	8277503	0.104388	-0.038018	9.822269	-0.004792	0.008938	-0.009963				-0.402040	-0.585868	31.659452
33016	8277528	0.112550	-0.052677	9.830606	-0.000094	0.018787	-0.013168	0.298599	-0.244972	-0.913881	-0.402034	-0.583190	31.657547
33019	8277553	0.107414	-0.050160	9.819595	-0.000808	-0.005978	-0.019723				-0.402120	-0.584066	31.654730
33023	8277578	0.089860	-0.058509	9.835961	-0.014485	-0.005884	0.009191				-0.401851	-0.584529	31.660932
33026	8277603	0.088445	-0.047656	9.824942	0.003818	-0.010122	0.003067				-0.401309	-0.585975	31.661374
33030	8277628	0.078668	-0.043865	9.834456	0.001851	0.002603	0.000621	0.300083	-0.246964	-0.913426	-0.401045	-0.585602	31.661464
33033	8277653	0.097521	-0.043581	9.834601	-0.006676	0.006334	-0.020142				-0.401972	-0.584715	31.658568
33037	8277678	0.100950	-0.066413	9.822342	-0.009915	-0.007558	-0.015377				-0.400292	-0.589105	31.656630
33040	8277703	0.069616	-0.064072	9.822115	0.012466	0.004256	-0.007761				-0.398495	-0.588503	31.655517
33044	8277728	0.104929	-0.056926	9.826458	-0.006500	-0.019908	-0.004554	0.300056	-0.245486	-0.913391	-0.399420	-0.591359	31.654880
33047	8277753	0.073317	-0.050629	9.838560	-0.000516	0.013204	-0.001954				-0.399491	-0.589470	31.654597
33051	8277778	0.070472	-0.053413	9.859130	-0.010160	-0.007883	-0.025448				-0.399528	-0.593156	31.648551
33054	8277803	0.077380	-0.050682	9.838592	-0.014961	0.002088	0.006875				-0.401681	-0.592850	31.649537
33058	8277828	0.085068	-0.046355	9.840000	0.004734	0.027502	0.019372	0.300515	-0.244510	-0.913365	-0.401031	-0.588891	31.652284
33061	8277853	0.089757	-0.061139	9.856539	-0.010464	0.001398	-0.021641				-0.402498	-0.588713	31.649191
33065	8277878	0.068543	-0.082882	9.835889	0.013089	-0.010405	0.009190				-0.397004	-0.590012	31.653519
33068	8277903	0.064179	-0.061569	9.837161	-0.003073	-0.008783	-0.005358				-0.397437	-0.591275	31.652758
33072	8277928	0.081876	-0.057524	9.822180	-0.012179	-0.013441	-0.008446	0.298613	-0.244969	-0.913386	-0.399169	-0.593209	31.651562
33075	8277953	0.094000	-0.059975	9.822272	-0.010948	0.003764	-0.000988				-0.400735	-0.592670	31.651423
33079	8277978	0.057072	-0.064330	9.845349	0.000302	0.015934	0.003257				-0.398360	-0.592273	31.649139
33082	8278003	0.082903	-0.054382	9.848243	-0.000216	-0.000407	-0.004391				-0.398385	-0.592335	31.648508
33086	8278028	0.077556	-0.045480	9.823491	-0.019608	-0.008623	-0.014658	0.299113	-0.246949	-0.913925	-0.401172	-0.593585	31.646413
33089	8278053	0.081971	-0.059735	9.829055	0.011310	-0.017646	0.013787				-0.399572	-0.596099	31.648406
33093	8278078	0.077427	-0.038418	9.837177	0.002316	-0.012884	0.000127				-0.400170	-0.596421	31.646422
33096	8278103	0.069663	-0.073594	9.835865	-0.000006	0.004725	-0.001256				-0.400169	-0.595745	31.646247
33100	8278128	0.085987	-0.061142	9.822221	0.013073	-0.003926	-0.004853	0.299099	-0.246952	-0.914420	-0.398289	-0.596313	31.645548
33103	8278153	0.074822	-0.061421	9.837239	-0.003588	-0.001672	-0.002564				-0.398799	-0.596555	31.645190
33107	8278178	0.087151	-0.058562	9.824962	0.003545	-0.001220	0.020479				-0.393977	-0.600509	31.650689
33110	8278203	0.060958	-0.036202	9.828831	-0.008123	0.006019	0.007288				-0.395151	-0.599640	31.651721
33114	8278228	0.068185	-0.052068	9.816586	-0.003767	-0.008862	-0.000189	0.298096	-0.245955	-0.915391	-0.395691	-0.600909	31.651709
33117	8278253	0.092149	-0.028943	9.822170	-0.003082	-0.004159	0.005093				-0.396140	-0.601500	31.652447
33121	8278278	0.095136	-0.051559	9.830482	0.004022	0.003859	-0.006841				-0.393377	-0.602133	31.650508
33124	8278303	0.091031	-0.047719	9.823583	0.000870	-0.006370	-0.013229				-0.393233	-0.603058	31.648613
33128	8278328	0.072142	-0.048005	9.822083	0.000221	0.001149	-0.006349	0.298097	-0.244473	-0.914367	-0.393192	-0.602900	31.647703
33131	8278353	0.055755	-0.051214	9.831582	-0.013441	-0.001726	-0.003725				-0.395111	-0.603151	31.647176
33135	8278378	0.078367	-0.029093	9.834405	-0.013617	0.017779	-0.006264				-0.393344	-0.602478	31.647742
33138	8278403	0.095123	-0.046500	9.822239	-0.016570	-0.012866	0.003181				-0.395723	-0.604317	31.648213
33142	8278428	0.080304	-0.050524	9.816648	0.003952	0.003266	-0.007381	0.298603	-0.245959	-0.914399	-0.395146	-0.603857	31.647140
33145	8278453	0.073485	-0.057381	9.834468	-0.004266	-0.002669	0.012203				-0.395775	-0.604227	31.648891
33149	8278478	0.081367	-0.050600	9.823528	-0.003269	0.014551	-0.006369				-0.395286	-0.603557	31.645929
33152	8278503	0.073080	-0.054755	9.848174	-0.010554	0.021631	-0.008236				-0.396786	-0.600467	31.644718
33156	8278528	0.085885	-0.045034	9.826287	-0.001678	-0.017196	-0.014253	0.299567	-0.246468	-0.914406	-0.397005	-0.602944	31.642701
33159	8278553	0.083144	-0.050868	9.812565	-0.024331	-0.009082	0.004819				-0.400497	-0.604240	31.643391
33163	8278578	0.092242	-0.048891	9.840055	-0.002311	0.004444	0.002310				-0.395731	-0.604203	31.644980
33166	8278603	0.092370	-0.051583	9.835953	-0.002904	0.001130	0.006557				-0.396157	-0.604034	31.645918
33170	8278628	0.094746	-0.048801	9.849672	0.008622	0.013368	0.000420	0.299079	-0.247449	-0.915421	-0.394923	-0.602119	31.645971
33173	8278653	0.068375	-0.066979	9.842697	-0.008121	-0.008483	-0.012973				-0.396067	-0.603347	31.644120
33177	8278678	0.093583	-0.048971	9.833212	-0.001976	0.009325	-0.005817				-0.396452	-0.603612	31.646027
33180	8278703	0.080682	-0.066899	9.819462	-0.012916	-0.012839	-0.009646				-0.398287	-0.605461	31.644657
33184	8278728	0.084480	-0.066757	9.826344	-0.009508	0.006968	-0.005709	0.297707	-0.248402	-0.913967	-0.399641	-0.604469	31.643828
33187	8278753	0.089694	-0.057374	9.834579	-0.017944	0.000240	-0.006783				-0.402201	-0.604441	31.642858
33191	8278778	0.082960	-0.068074	9.835940	-0.010093	0.010055	0.005890				-0.400001	-0.605777	31.643050
33194	8278803	0.095192	-0.063603	9.834637	0.001882	0.007278	0.013083				-0.399751	-0.604722	31.644910
33198	8278828	0.085773	-0.060109	9.833189	-0.017899	-0.004180	-0.003614	0.297647	-0.245942	-0.914404	-0.402310	-0.605324	31.644396
33201	8278853	0.066750	-0.065506	9.844049	-0.001313	0.010563	-0.013548				-0.402477	-0.603825	31.642446
33205	8278878	0.075049	-0.066677	9.831769	0.001559	0.002626	-0.001325				-0.402406	-0.606448	31.643451
33208	8278903	0.101776	-0.040678	9.831869	0.005506	-0.002643	-0.014608				-0.401595	-0.606841	31.641366
33212	8278928	0.075982	-0.049353	9.834461	-0.007975	0.002740	0.004894	0.298107	-0.244966	-0.914378	-0.402745	-0.606444	31.642058
33215	8278953	0.098844	-0.036734	9.833212	-0.002308	0.006934	0.009616				-0.403090	-0.605441	31.643431
33219	8278978	0.094228	-0.073335	9.825066	-0.010309	-0.007239	0.000319				-0.402152	-0.607507	31.640428
33222	8279003	0.084411	-0.051926	9.820824	-0.008358	-0.002657	0.006457				-0.403359	-0.607881	31.641356
33226	8279028	0.080357	-0.048002	9.823516	-0.013141	-0.008796	-0.019923	0.299093	-0.247446	-0.914926	-0.405212	-0.609161	31.638516
33229	8279053	0.073095	-0.029020	9.824777	0.003387	0.000699	-0.009182				-0.404712	-0.609070	31.637190
33233	8279078	0.089706	-0.053040	9.826335	0.006960	0.008155	0.006747				-0.402331	-0.608509	31.641062
33236	8279103	0.088324	-0.055860	9.827711	-0.005959	0.013489	0.005722				-0.403193	-0.606571	31.641869
33240	8279128	0.090978	-0.041018	9.809847	-0.005758	0.006686	-0.000764	0.298095	-0.247437	-0.916416	-0.404016	-0.605614	31.641749
33243	8279153	0.096657	-0.051509	9.829120	0.004059	-0.009863	0.013667				-0.403456	-0.607013	31.643715
33247	8279178	0.053377	-0.065820	9.839855	-0.001444	-0.009677	-0.005703				-0.401478	-0.608441	31.639887
33250	8279203	0.086765	-0.038385	9.839993	-0.014004	0.001258	0.005136				-0.403491	-0.608256	31.640621
33254	8279228	0.088116	-0.040623	9.840001	0.019965	-0.000320	-0.004834	0.298596	-0.247935	-0.915930	-0.400624	-0.608307	31.639928
33257	8279253	0.085910	-0.061263	9.837310	-0.003645	-0.007637	0.007193				-0.401157	-0.609393	31.640973
33261	8279278	0.065227	-0.052095	9.834397	0.003691	0.003937	-0.022806				-0.397262	-0.610690	31.638858
33264	8279303	0.089627	-0.053173	9.829076	-0.004815	0.008482	0.004399				-0.397958	-0.609471	31.639477
33268	8279328	0.078615	-0.045134	9.837212	0.000149	0.004022	-0.003064	0.298587	-0.247443	-0.915918	-0.397932	-0.608898	31.639036
33271	8279353	0.096530	-0.046270	9.827727	-0.002885	-0.001192	-0.003563				-0.398340	-0.609072	31.638529
33275	8279378	0.079893	-0.047768	9.846831	0.001651	0.002927	0.000887				-0.395992	-0.611090	31.640453
33278	8279403	0.075949	-0.057393	9.838596	-0.001973	0.016242	-0.007185				-0.396263	-0.608771	31.639402
33282	8279428	0.062843	-0.056386	9.826162	-0.009973	-0.007585	-0.002709	0.298062	-0.246454	-0.916887	-0.397688	-0.609860	31.639023
33285	8279453	0.084742	-0.077457	9.826383	-0.004347	-0.006671	0.004172				-0.398316	-0.610811	31.639623
33289	8279478	0.064052	-0.072533	9.838568	-0.014484	0.010538	0.009595				-0.397945	-0.610041	31.640072
33292	8279503	0.068107	-0.056033	9.838550	-0.001933	-0.008072	-0.007844				-0.398210	-0.611205	31.638959
33296	8279528	0.083216	-0.061026	9.831794	0.019976	-0.007053	-0.006686	0.298066	-0.247441	-0.917405	-0.395339	-0.612222	31.638012
33299	8279553	0.070836	-0.057584	9.808394	0.001557	0.017844	0.014724				-0.395138	-0.609651	31.640099
33303	8279578	0.085842	-0.073315	9.831854	0.000918	0.010243	-0.001813				-0.393595	-0.613233	31.638590
33306	8279603	0.085893	-0.065258	9.830473	-0.008471	-0.003670	-0.011979				-0.394790	-0.613770	31.636880
33310	8279628	0.108916	-0.071623	9.842978	-0.003426	-0.002818	-0.015894	0.297555	-0.246450	-0.917879	-0.395256	-0.614189	31.634611
33313	8279653	0.092635	-0.059779	9.837344	-0.007373	-0.007865	-0.004126				-0.396306	-0.615320	31.634018
33317	8279678	0.092340	-0.059717	9.851063	-0.009297	0.006379	-0.015967				-0.394124	-0.612246	31.634603
33320	8279703	0.085638	-0.065154	9.838692	0.004812	0.008333	-0.003502				-0.393429	-0.611056	31.634099
33324	8279728	0.066713	-0.060305	9.835808	-0.011815	0.000156	-0.008968	0.297589	-0.245951	-0.916383	-0.395108	-0.611042	31.632811
33327	8279753	0.091130	-0.054746	9.820868	-0.033219	-0.000274	0.000274				-0.399866	-0.611081	31.632844
33331	8279778	0.080176	-0.053072	9.829018	0.006253	0.008208	-0.007877				-0.393011	-0.612529	31.631313
33334	8279803	0.065470	-0.048039	9.830282	-0.000617	-0.012873	0.000952				-0.393101	-0.614372	31.631466
33338	8279828	0.066588	-0.053210	9.831665	0.023663	0.006944	-0.008701	0.298138	-0.247430	-0.914931	-0.389698	-0.613386	31.630212
33341	8279853	0.061210	-0.038642	9.812369	0.011365	0.005287	-0.007097				-0.388059	-0.612636	31.629185
33345	8279878	0.097955	-0.055616	9.815421	0.007010	0.003660	-0.008930				-0.391200	-0.614434	31.629208
33348	8279903	0.101727	-0.040879	9.823638	-0.011237	0.002930	0.001763				-0.392812	-0.614013	31.629454
33352	8279928	0.085710	-0.062563	9.840054	-0.008127	0.004922	-0.004901	0.298085	-0.246944	-0.916404	-0.393969	-0.613312	31.628752
33355	8279953	0.087199	-0.054546	9.813972	-0.002280	0.007401	-0.000711				-0.394294	-0.612253	31.628642
33359	8279978	0.077033	-0.051782	9.860538	0.007054	0.014783	-0.007631				-0.389069	-0.611976	31.626879
33362	8280003	0.080076	-0.059780	9.845498	0.008619	0.008594	0.000502				-0.387835	-0.610745	31.626946
33366	8280028	0.062542	-0.056314	9.846740	-0.009969	-0.002304	-0.011384	0.299466	-0.246484	-0.917870	-0.389245	-0.611086	31.625314
33369	8280053	0.080250	-0.059907	9.844124	-0.000592	0.002839	-0.019762				-0.389300	-0.610699	31.622479
33373	8280078	0.080045	-0.046713	9.822132	-0.004508	0.008722	-0.012779				-0.387957	-0.610313	31.623619
33376	8280103	0.081403	-0.049025	9.838613	0.003880	0.007011	-0.000419				-0.387400	-0.609309	31.623550
33380	8280128	0.078743	-0.051804	9.850954	0.002864	-0.004846	0.004126	0.298541	-0.244981	-0.915861	-0.386997	-0.609999	31.624149
33383	8280153	0.088395	-0.051607	9.824962	0.003870	0.000398	0.004236				-0.386449	-0.609938	31.624758
33387	8280178	0.088652	-0.074491	9.845609	0.007941	-0.005017	-0.017761				-0.383647	-0.611871	31.619016
33390	8280203	0.096534	-0.043377	9.830466	0.008130	-0.014722	-0.000359				-0.382482	-0.613981	31.618976
33394	8280228	0.088255	-0.050562	9.831809	-0.007559	0.002295	-0.005771	0.298067	-0.245960	-0.916381	-0.383555	-0.613657	31.618145
33397	8280253	0.088691	-0.067809	9.808543	0.009386	0.006315	0.003588				-0.382216	-0.612749	31.618648
33401	8280278	0.077526	-0.064205	9.830400	-0.002289	0.011604	-0.017697				-0.381069	-0.613474	31.616440
33404	8280303	0.069086	-0.043880	9.845368	-0.008091	-0.000815	-0.017232				-0.382201	-0.613608	31.613968
33408	8280328	0.075046	-0.076126	9.838644	0.003669	0.012685	0.001246	0.297141	-0.245938	-0.915396	-0.381677	-0.611789	31.614135
33411	8280353	0.094010	-0.061112	9.829144	-0.004384	-0.003892	-0.006431				-0.382296	-0.612353	31.613219
33415	8280378	0.082593	-0.047652	9.835874	0.011894	0.015604	-0.005044				-0.376387	-0.610174	31.614187
33418	8280403	0.061058	-0.062782	9.850851	0.008495	0.015259	0.007649				-0.375182	-0.607981	31.615259
33422	8280428	0.081806	-0.052991	9.830408	0.009240	-0.011027	-0.013325	0.296189	-0.246909	-0.915919	-0.373838	-0.609573	31.613365
33425	8280453	0.088036	-0.045263	9.820821	-0.010738	0.010979	-0.009610				-0.375362	-0.608009	31.611981
33429	8280478	0.077245	-0.041242	9.830321	-0.013869	0.018065	0.001989				-0.374206	-0.609070	31.612957
33432	8280503	0.057091	-0.045380	9.849411	0.009742	-0.012378	-0.009842				-0.372795	-0.610852	31.611564
33436	8280528	0.085655	-0.054546	9.824950	-0.002484	0.003490	0.003794	0.297121	-0.246435	-0.916397	-0.373157	-0.610349	31.612093
33439	8280553	0.089560	-0.049161	9.841410	-0.013268	-0.009131	0.000335				-0.375058	-0.611656	31.612150
33443	8280578	0.100090	-0.039351	9.837340	0.008807	0.015670	0.006515				-0.371188	-0.608057	31.611879
33446	8280603	0.076386	-0.075042	9.829060	-0.019449	0.002882	-0.007929				-0.373962	-0.607652	31.610737
33450	8280628	0.096617	-0.044800	9.831842	-0.003767	-0.013435	-0.010221	0.297612	-0.247923	-0.916924	-0.374486	-0.609586	31.609290
33453	8280653	0.075766	-0.041082	9.838547	0.003324	0.005454	0.002006				-0.374013	-0.608803	31.609568
33457	8280678	0.092058	-0.034141	9.831771	0.001182	0.012220	-0.005980				-0.373969	-0.610671	31.608721
33460	8280703	0.103295	-0.052779	9.838759	0.003816	-0.002980	0.013508				-0.373443	-0.611085	31.610662
33464	8280728	0.099279	-0.049040	9.844226	-0.013410	-0.019214	0.006008	0.297114	-0.248412	-0.917928	-0.375373	-0.613832	31.611535
33467	8280753	0.085628	-0.057301	9.833180	-0.012605	0.003715	-0.013663				-0.377157	-0.613313	31.609577
33471	8280778	0.062129	-0.038310	9.856279	0.015634	0.001097	-0.001124				-0.370418	-0.614415	31.611880
33474	8280803	0.096075	-0.050272	9.838718	-0.000232	0.025623	-0.018691				-0.370422	-0.610762	31.609179
33478	8280828	0.093721	-0.051674	9.819492	-0.002676	0.010802	-0.013405	0.298591	-0.248430	-0.916436	-0.370785	-0.609228	31.607255
33481	8280853	0.098623	-0.035310	9.846921	-0.005293	0.008160	0.003856				-0.371549	-0.608055	31.607797
33485	8280878	0.096508	-0.056777	9.838737	0.015222	-0.000729	-0.013925				-0.368128	-0.610348	31.603561
33488	8280903	0.103351	-0.066307	9.831962	0.002967	0.009166	-0.008452				-0.367690	-0.609043	31.602339
33492	8280928	0.092568	-0.055715	9.827739	0.002590	0.001138	0.001892	0.297177	-0.247908	-0.915442	-0.367322	-0.608878	31.602609
33495	8280953	0.093762	-0.044992	9.830460	-0.006700	-0.006694	-0.007148				-0.368271	-0.609843	31.601592
33499	8280978	0.085915	-0.060016	9.833195	-0.011119	-0.011933	0.004092				-0.367445	-0.610933	31.604040
33502	8281003	0.074561	-0.047891	9.849543	-0.000964	-0.000052	-0.006467				-0.367573	-0.610946	31.603113
33506	8281028	0.076287	-0.057408	9.848215	-0.014538	-0.009792	-0.016223	0.296600	-0.246434	-0.917884	-0.369631	-0.612364	31.600800
33509	8281053	0.076447	-0.076154	9.840035	0.008942	-0.008018	-0.019971				-0.368319	-0.613531	31.597943
33513	8281078	0.095287	-0.054429	9.818143	-0.002994	0.002764	0.008424				-0.368780	-0.614447	31.601196
33516	8281103	0.091266	-0.058431	9.827731	-0.007987	-0.001697	0.004648				-0.369931	-0.614686	31.601861
33520	8281128	0.109715	-0.045996	9.837421	0.000384	0.010926	-0.013877	0.296098	-0.245936	-0.918370	-0.369855	-0.613134	31.599869
33523	8281153	0.096379	-0.055563	9.846964	-0.003354	0.010732	0.001496				-0.370338	-0.611595	31.600083
33527	8281178	0.065390	-0.060296	9.833045	-0.002956	0.009106	-0.009976				-0.366711	-0.614527	31.595839
33530	8281203	0.077594	-0.046779	9.813890	-0.015038	-0.011097	-0.023331				-0.368829	-0.616138	31.592510
33534	8281228	0.076335	-0.046514	9.824857	0.002460	-0.016238	-0.002339	0.297087	-0.246935	-0.917893	-0.368473	-0.618466	31.592191
33537	8281253	0.078567	-0.042419	9.828975	0.005220	0.007164	0.005281				-0.367733	-0.617435	31.592938
33541	8281278	0.070538	-0.049164	9.817970	0.008300	0.028671	-0.015071				-0.365502	-0.614356	31.590376
33544	8281303	0.066554	-0.056219	9.828938	-0.005469	0.012770	0.015442				-0.366309	-0.612513	31.592578
33548	8281328	0.073634	-0.065361	9.834493	0.005205	-0.001931	0.006254	0.296623	-0.246924	-0.917401	-0.365573	-0.612784	31.593472
33551	8281353	0.074845	-0.065506	9.838611	-0.005722	0.007433	0.013053				-0.366413	-0.611708	31.595333
33555	8281378	0.076099	-0.060043	9.844094	-0.009517	0.006682	0.005896				-0.363965	-0.612311	31.595322
33558	8281403	0.077191	-0.046581	9.857780	-0.010005	0.004625	0.020464				-0.365430	-0.611630	31.598251
33562	8281428	0.087841	-0.039591	9.846858	-0.003374	0.017932	-0.016707	0.296576	-0.245944	-0.918367	-0.365887	-0.609077	31.595842
33565	8281453	0.058348	-0.038786	9.828828	-0.008371	-0.004369	-0.013733				-0.367066	-0.609715	31.593877
33569	8281478	0.080013	-0.031677	9.824837	0.003117	-0.003062	-0.020368				-0.364008	-0.609979	31.595048
33572	8281503	0.091953	-0.026134	9.829004	0.002734	0.007741	-0.006106				-0.363607	-0.608876	31.594161
33576	8281528	0.067522	-0.023638	9.838440	0.001265	0.006242	0.000466	0.297036	-0.244967	-0.918342	-0.363426	-0.607981	31.594229
33579	8281553	0.083954	-0.035862	9.823498	-0.002186	0.011550	0.015973				-0.363764	-0.606312	31.596512
33583	8281578	0.087238	-0.046229	9.829046	0.002792	-0.020702	0.010623				-0.361980	-0.613096	31.594020
33586	8281603	0.058565	-0.046835	9.828846	0.002193	-0.009039	-0.015651				-0.361641	-0.614405	31.591789
33590	8281628	0.073062	-0.036061	9.823425	-0.013815	0.014357	0.001866	0.297499	-0.244978	-0.918835	-0.363623	-0.612347	31.592047
33593	8281653	0.071743	-0.038564	9.853596	-0.005978	0.001547	0.007299				-0.364491	-0.612118	31.593088
33597	8281678	0.103599	-0.067636	9.847054	-0.002901	-0.014360	0.010301				-0.362151	-0.614246	31.596073
33600	8281703	0.094903	-0.046238	9.845558	-0.002778	-0.009720	0.000952				-0.362550	-0.615637	31.596224
33604	8281728	0.085910	-0.043441	9.830400	0.017613	-0.024761	-0.007421	0.298000	-0.245476	-0.918349	-0.360016	-0.619191	31.595179
33607	8281753	0.099991	-0.023529	9.820831	-0.018057	0.006378	0.004736				-0.362610	-0.618273	31.595857
33611	8281778	0.089560	-0.042373	9.834530	-0.000373	0.004134	0.012366				-0.358715	-0.619879	31.598200
33614	8281803	0.087991	-0.045186	9.841390	-0.017747	0.010702	0.018670				-0.361286	-0.618329	31.600871
33618	8281828	0.069087	-0.027921	9.823376	-0.008097	0.001715	0.001809	0.297980	-0.245973	-0.919350	-0.362448	-0.618082	31.601129
33621	8281853	0.100235	-0.020587	9.829053	-0.002186	-0.014453	-0.001781				-0.362759	-0.620154	31.600887
33625	8281878	0.084230	-0.053143	9.838641	-0.003743	0.004826	-0.012837				-0.363316	-0.618005	31.600203
33628	8281903	0.080124	-0.064048	9.837278	-0.004724	0.020474	-0.000212				-0.363992	-0.615073	31.600161
33632	8281928	0.093987	-0.073191	9.841514	-0.006881	0.004284	-0.000681	0.298018	-0.246461	-0.918372	-0.364977	-0.614460	31.600051
33635	8281953	0.107417	-0.051645	9.838796	-0.019895	-0.012453	-0.011213				-0.367810	-0.616253	31.598459
33639	8281978	0.101946	-0.047509	9.831892	-0.004061	-0.006720	-0.002533				-0.363624	-0.619016	31.599712
33642	8282003	0.109888	-0.048603	9.848406	0.002839	0.003850	-0.002533				-0.363213	-0.618467	31.599340
33646	8282028	0.106093	-0.053047	9.820971	-0.013070	-0.008136	-0.000203	0.297541	-0.246453	-0.918374	-0.365085	-0.619632	31.599317
33649	8282053	0.111327	-0.057994	9.833357	0.000931	0.008403	-0.008649				-0.364938	-0.618437	31.598076
33653	8282078	0.092393	-0.042210	9.827689	0.005962	-0.009735	0.006075				-0.364831	-0.624335	31.598835
33656	8282103	0.115298	-0.049766	9.840211	0.010328	0.004300	0.021371				-0.363385	-0.623699	31.601892
33660	8282128	0.081339	-0.057296	9.831778	-0.003871	0.019599	-0.007993	0.297025	-0.245957	-0.919355	-0.363927	-0.620899	31.600726
33663	8282153	0.088625	-0.053048	9.827698	0.013064	-0.007705	-0.004637				-0.362049	-0.622007	31.600072
33667	8282178	0.112622	-0.055313	9.831992	0.003205	0.009969	0.005697				-0.361088	-0.619790	31.600530
33670	8282203	0.107544	-0.054154	9.825100	-0.007981	-0.010601	-0.008665				-0.362218	-0.621316	31.599301
33674	8282228	0.119334	-0.044440	9.833376	-0.004183	-0.003897	0.009669	0.297554	-0.247932	-0.918904	-0.362832	-0.621866	31.600681
33677	8282253	0.089556	-0.048947	9.826320	0.006208	0.018840	0.014699				-0.361965	-0.619154	31.602772
33681	8282278	0.088107	-0.041174	9.830403	-0.011913	0.004441	-0.007562				-0.360405	-0.623864	31.599208
33684	8282303	0.085801	-0.061270	9.818098	0.004324	0.012846	0.005004				-0.359793	-0.622019	31.599917
33688	8282328	0.101777	-0.058328	9.837410	-0.014032	0.017232	0.019574	0.297541	-0.246453	-0.918374	-0.361834	-0.619533	31.602701
33691	8282353	0.114920	-0.043202	9.829219	-0.006278	0.028029	0.003065				-0.362737	-0.615516	31.603114
33695	8282378	0.103464	-0.044962	9.808580	-0.007156	-0.000563	-0.000454				-0.359748	-0.618423	31.604976
33698	8282403	0.107272	-0.052758	9.838803	-0.002310	0.006163	0.017475				-0.360106	-0.617524	31.607464
33702	8282428	0.087958	-0.042194	9.841380	0.008039	0.010286	-0.022511	0.298000	-0.245476	-0.918349	-0.358919	-0.616071	31.604234
33705	8282453	0.081457	-0.050400	9.839983	0.005646	0.000665	0.000812				-0.358112	-0.615975	31.604358
33709	8282478	0.087329	-0.061453	9.819487	-0.018398	-0.003301	0.009134				-0.360231	-0.614037	31.606228
33712	8282503	0.086597	-0.045069	9.838637	-0.008114	0.018547	-0.003003				-0.361388	-0.611383	31.605786
33716	8282528	0.112787	-0.039258	9.814108	-0.000486	-0.001034	-0.012898	0.298024	-0.245966	-0.917866	-0.361438	-0.611543	31.603938
33719	8282553	0.084514	-0.057416	9.833171	-0.013839	-0.010858	-0.009988				-0.363405	-0.613108	31.602510
33723	8282578	0.077486	-0.069306	9.857854	0.000370	0.014465	0.004077				-0.358342	-0.610891	31.604840
33726	8282603	0.082571	-0.047681	9.838614	0.005592	0.013119	-0.008892				-0.357527	-0.609020	31.603556
33730	8282628	0.061458	-0.061416	9.835775	0.012851	-0.004305	-0.006129	0.298462	-0.246969	-0.919866	-0.355677	-0.609642	31.602686
33733	8282653	0.056779	-0.038745	9.838422	0.000690	0.007981	0.008845				-0.355591	-0.608491	31.603944
33737	8282678	0.079164	-0.051989	9.830371	-0.003350	-0.011675	-0.017150				-0.355855	-0.614413	31.599016
33740	8282703	0.078650	-0.055876	9.849596	0.000805	-0.000033	-0.006342				-0.355730	-0.614423	31.598095
33744	8282728	0.085449	-0.045181	9.837254	-0.003834	0.005789	0.008957	0.297521	-0.246950	-0.919376	-0.356293	-0.613586	31.599383
33747	8282753	0.083091	-0.058346	9.834530	0.013337	-0.002156	0.022104				-0.354417	-0.613875	31.602544
33751	8282778	0.070784	-0.050600	9.822085	0.008497	0.006509	-0.021839				-0.352714	-0.613041	31.597672
33754	8282803	0.088747	-0.050693	9.813971	-0.017017	-0.018753	-0.002630				-0.355148	-0.615730	31.597310
33758	8282828	0.091611	-0.071905	9.825042	0.000700	-0.015844	-0.013664	0.296556	-0.246441	-0.919369	-0.355026	-0.618011	31.595370
33761	8282853	0.079113	-0.078804	9.840065	-0.004219	0.006378	-0.010565				-0.355614	-0.617107	31.593853
33765	8282878	0.071017	-0.083046	9.830423	0.003500	0.008759	0.007635				-0.350418	-0.618558	31.599860
33768	8282903	0.073706	-0.073386	9.834517	0.008488	0.001444	0.005621				-0.349211	-0.618346	31.600661
33772	8282928	0.084356	-0.050492	9.807095	0.007585	0.003947	0.009844	0.295546	-0.243470	-0.919304	-0.348139	-0.617772	31.602067
33775	8282953	0.077287	-0.053290	9.824881	-0.000452	0.016648	-0.006664				-0.348194	-0.615393	31.601097
33779	8282978	0.066510	-0.050737	9.842634	0.001130	0.001323	-0.003068				-0.346317	-0.618199	31.600326
33782	8283003	0.088169	-0.038234	9.824914	0.000368	-0.002284	0.003059				-0.346269	-0.618524	31.600766
33786	8283028	0.096465	-0.041002	9.820853	-0.009432	-0.001262	0.004521	0.296066	-0.244953	-0.918841	-0.347627	-0.618701	31.601418
33789	8283053	0.077399	-0.045205	9.822119	-0.003137	0.001574	0.008093				-0.348089	-0.618468	31.602582
33793	8283078	0.088053	-0.045006	9.824924	0.006030	0.020714	-0.011669				-0.344557	-0.614883	31.599019
33796	8283103	0.063939	-0.070810	9.853656	0.001882	0.002719	-0.013065				-0.344268	-0.614505	31.597140
33800	8283128	0.082671	-0.041090	9.844089	-0.005575	0.002016	-0.007857	0.296609	-0.246926	-0.917896	-0.345054	-0.614223	31.596017
33803	8283153	0.082807	-0.034208	9.822112	0.006808	-0.001416	0.003958				-0.344085	-0.614422	31.596591
33807	8283178	0.081320	-0.042643	9.826243	-0.017202	0.012527	0.011350				-0.345754	-0.613704	31.599002
33810	8283203	0.083876	-0.053444	9.840025	-0.020061	0.020473	0.018919				-0.348657	-0.610755	31.601693
33814	8283228	0.084201	-0.054224	9.841386	0.017314	0.005248	-0.007589	0.296122	-0.246426	-0.917886	-0.346165	-0.610010	31.600605
33817	8283253	0.087214	-0.058799	9.840055	-0.023238	-0.007759	-0.004040				-0.349488	-0.611125	31.600028
33821	8283278	0.065090	-0.041585	9.835735	-0.019625	-0.004396	-0.008713				-0.345750	-0.612365	31.600180
33824	8283303	0.070550	-0.055977	9.857766	-0.007346	-0.001295	0.000544				-0.346804	-0.612550	31.600267
33828	8283328	0.078966	-0.060242	9.838632	-0.020157	-0.001268	-0.005493	0.296563	-0.244464	-0.917838	-0.349683	-0.612736	31.599481
33831	8283353	0.081415	-0.039785	9.835844	-0.012361	-0.002563	0.025597				-0.351492	-0.613081	31.603145
33835	8283378	0.086692	-0.034342	9.811172	0.001907	0.009774	0.014147				-0.350511	-0.613956	31.601163
33838	8283403	0.073148	-0.038520	9.835776	-0.002971	0.012256	0.012082				-0.350955	-0.612190	31.602885
33842	8283428	0.073342	-0.047855	9.834440	0.008313	0.001518	-0.000288	0.296542	-0.246443	-0.919864	-0.349764	-0.611973	31.602840
33845	8283453	0.094907	-0.042278	9.830446	0.000089	0.006330	0.012159				-0.349769	-0.611056	31.604574
33849	8283478	0.099493	-0.064769	9.830554	0.016874	-0.007783	-0.000153				-0.346912	-0.614950	31.606677
33852	8283503	0.093671	-0.041796	9.838666	0.023481	-0.003740	0.002405				-0.343553	-0.615484	31.607033
33856	8283528	0.087368	-0.062631	9.827724	0.003764	-0.016512	0.005099	0.294157	-0.247389	-0.920393	-0.343022	-0.617844	31.607775
33859	8283553	0.088528	-0.072003	9.833246	-0.012237	0.009155	-0.008784				-0.344761	-0.616540	31.606512
33863	8283578	0.111130	-0.033728	9.836024	0.009996	-0.003970	-0.004633				-0.339345	-0.619017	31.609078
33866	8283603	0.090885	-0.037948	9.842766	0.010507	-0.007257	-0.000867				-0.337839	-0.620057	31.608948
33870	8283628	0.088418	-0.058311	9.846920	0.009781	-0.004269	-0.017373	0.294578	-0.245925	-0.921346	-0.336411	-0.620684	31.606469
33873	8283653	0.094727	-0.044639	9.837322	0.013159	0.012043	-0.014827				-0.334503	-0.618971	31.604335
33877	8283678	0.086865	-0.044990	9.823545	0.009596	0.003792	-0.010757				-0.334516	-0.620363	31.603879
33880	8283703	0.083076	-0.039793	9.828987	-0.001396	-0.017618	-0.016744				-0.334690	-0.622900	31.601492
33884	8283728	0.086869	-0.041260	9.813933	-0.018193	0.002445	-0.018863	0.294101	-0.245916	-0.921348	-0.337266	-0.622566	31.598785
33887	8283753	0.105536	-0.030259	9.827738	-0.034733	0.007303	-0.012952				-0.342221	-0.621531	31.596923
33891	8283778	0.111344	-0.044844	9.818231	-0.015017	0.001046	0.014937				-0.335290	-0.622207	31.599026
33894	8283803	0.096228	-0.046345	9.820870	-0.008839	0.021279	-0.000057				-0.336555	-0.619159	31.598998
33898	8283828	0.092058	-0.032882	9.840012	-0.008790	0.003180	0.010672	0.294649	-0.247395	-0.919896	-0.337831	-0.618695	31.600527
33901	8283853	0.094518	-0.026154	9.849607	-0.011414	0.001091	-0.004405				-0.339459	-0.618542	31.599897
33905	8283878	0.091171	-0.046170	9.826320	0.008741	-0.009477	0.003846				-0.339296	-0.620531	31.599384
33908	8283903	0.099423	-0.043458	9.815392	0.003585	-0.016578	-0.005624				-0.338774	-0.622910	31.598605
33912	8283928	0.088178	-0.042438	9.840013	-0.006019	0.004885	0.000121	0.294622	-0.245918	-0.919861	-0.339636	-0.622210	31.598616
33915	8283953	0.066727	-0.059127	9.830313	-0.019324	0.008458	0.006543				-0.342414	-0.620993	31.599537
33919	8283978	0.112634	-0.044597	9.830582	-0.000153	-0.001940	0.011186				-0.339059	-0.623843	31.599804
33922	8284003	0.089502	-0.036932	9.831773	-0.009291	-0.003098	-0.006014				-0.340381	-0.624292	31.598943
33926	8284028	0.064697	-0.021349	9.828812	-0.005858	0.000432	-0.013293	0.295521	-0.244462	-0.920812	-0.341199	-0.624241	31.597034
33929	8284053	0.100100	-0.023450	9.845510	-0.009978	-0.010903	0.002003				-0.342632	-0.625801	31.597333
33933	8284078	0.091873	-0.037997	9.838645	0.008026	0.013635	-0.000723				-0.340582	-0.622589	31.598097
33936	8284103	0.070411	-0.039952	9.852229	-0.014374	-0.000066	0.014865				-0.342664	-0.622585	31.600227
33940	8284128	0.076291	-0.050843	9.831727	-0.019176	-0.012992	0.000110	0.296517	-0.247435	-0.921371	-0.345411	-0.624446	31.600251
33943	8284153	0.076003	-0.041258	9.831700	-0.010926	-0.004382	-0.005466				-0.346968	-0.625079	31.599469
33947	8284178	0.085227	-0.027583	9.831710	-0.006589	0.007562	0.012250				-0.345563	-0.626429	31.602581
33950	8284203	0.079474	-0.024772	9.853610	0.000864	0.012429	0.018494				-0.345468	-0.624632	31.605220
33954	8284228	0.098920	-0.049944	9.855196	0.006557	0.007948	0.007087	0.297008	-0.248922	-0.921899	-0.344540	-0.623488	31.606234
33957	8284253	0.105605	-0.038121	9.837374	-0.013793	0.016302	0.014749				-0.346539	-0.621140	31.608328
33961	8284278	0.064824	-0.026577	9.837050	0.000061	0.008318	0.002149				-0.343847	-0.624443	31.606021
33964	8284303	0.066825	-0.040102	9.828891	-0.010051	-0.020790	0.018598				-0.345316	-0.627405	31.608710
33968	8284328	0.078975	-0.046781	9.827617	-0.013171	-0.009723	0.009859	0.296518	-0.245953	-0.920347	-0.347218	-0.628789	31.610123
33971	8284353	0.061493	-0.068303	9.835804	-0.001305	-0.003345	0.001326				-0.347407	-0.629268	31.610312
33975	8284378	0.077737	-0.045387	9.805654	-0.006732	-0.005373	-0.001861				-0.347934	-0.628729	31.612136
33978	8284403	0.066161	-0.037087	9.885112	-0.006203	-0.019000	-0.017042				-0.348796	-0.631465	31.609708
33982	8284428	0.122034	-0.091763	9.803359	-0.002374	-0.024641	0.011408	0.295568	-0.245442	-0.919845	-0.349154	-0.634985	31.611372
33985	8284453	0.077999	-0.064104	9.819427	0.001068	-0.016330	0.008401				-0.349014	-0.637316	31.612585
33989	8284478	0.074972	-0.053188	9.835842	-0.003073	-0.014779	-0.008082				-0.347526	-0.639102	31.610663
33992	8284503	0.105958	-0.055843	9.822339	-0.017658	0.008500	0.004400				-0.350062	-0.637881	31.611289
33996	8284528	0.092200	-0.048845	9.834562	0.006810	0.014642	-0.003070	0.295085	-0.245928	-0.920354	-0.349082	-0.635786	31.610840
33999	8284553	0.081512	-0.050557	9.819414	-0.002007	0.008427	-0.007966				-0.349357	-0.634586	31.609691
34003	8284578	0.056118	-0.067027	9.845352	0.003850	-0.001982	0.003906				-0.346152	-0.639914	31.612867
34006	8284603	0.082845	-0.045123	9.841362	-0.004634	-0.012431	0.007945				-0.346829	-0.641688	31.614015
34010	8284628	0.103925	-0.070537	9.812773	-0.011094	-0.013384	0.012958	0.295610	-0.246917	-0.919385	-0.348439	-0.643594	31.615880
34013	8284653	0.113348	-0.070326	9.807357	-0.004293	-0.008927	0.003448				-0.349060	-0.644869	31.616380
34017	8284678	0.114332	-0.070099	9.825190	0.007528	0.002292	-0.005165				-0.345383	-0.643585	31.614164
34020	8284703	0.085473	-0.045173	9.837263	-0.005274	-0.000980	-0.001276				-0.346136	-0.643727	31.613984
34024	8284728	0.091105	-0.044902	9.830438	0.005575	-0.009833	-0.017065	0.295103	-0.246913	-0.920377	-0.345311	-0.645150	31.611541
34027	8284753	0.101937	-0.060758	9.860732	0.000946	-0.016540	0.009419				-0.345190	-0.647511	31.612902
34031	8284778	0.112889	-0.062190	9.807322	-0.002156	0.011665	0.017318				-0.344024	-0.646255	31.614720
34034	8284803	0.107592	-0.053984	9.825091	0.006166	-0.009260	0.010172				-0.343157	-0.647572	31.616191
34038	8284828	0.119796	-0.063204	9.822461	0.004034	-0.011197	-0.011407	0.295565	-0.248405	-0.921894	-0.342561	-0.649186	31.614561
34041	8284853	0.109052	-0.063390	9.834727	0.011548	-0.018834	-0.006731				-0.340896	-0.651889	31.613622
34045	8284878	0.126603	-0.076512	9.847242	0.004625	-0.001189	0.014313				-0.339557	-0.653220	31.618208
34048	8284903	0.104499	-0.047386	9.838766	-0.001810	-0.001886	-0.009674				-0.339801	-0.653499	31.616818
34052	8284928	0.096139	-0.037959	9.846902	0.011665	-0.005861	-0.010197	0.295623	-0.248396	-0.919915	-0.338113	-0.654347	31.615364
34055	8284953	0.141345	-0.111466	9.758300	0.020699	0.001676	0.009403				-0.335164	-0.654099	31.616710
34059	8284978	0.085148	-0.034084	9.838585	0.010097	0.011510	0.002089				-0.332760	-0.656915	31.615002
34062	8285003	0.101295	-0.082612	9.803191	-0.004435	-0.005886	-0.006288				-0.333385	-0.657764	31.614102
34066	8285028	0.114056	-0.059347	9.836137	-0.002441	0.018574	-0.004636	0.295543	-0.246433	-0.921353	-0.333727	-0.655107	31.613424
34069	8285053	0.094758	-0.039429	9.848279	0.005957	-0.002193	0.016515				-0.332901	-0.655407	31.615794
34073	8285078	0.115180	-0.039046	9.834692	0.010866	0.006586	-0.005670				-0.326967	-0.655435	31.614165
34076	8285103	0.096441	-0.044816	9.834584	0.003856	-0.011389	-0.005983				-0.326405	-0.657071	31.613315
34080	8285128	0.108356	-0.036454	9.841497	-0.002013	0.007027	-0.007753	0.295036	-0.246430	-0.922345	-0.326681	-0.656071	31.612210
34083	8285153	0.083553	-0.007370	9.813807	-0.000313	0.010972	0.006765				-0.326737	-0.654494	31.613163
34087	8285178	0.099124	-0.067540	9.842910	0.013649	0.019360	-0.006399				-0.321644	-0.655119	31.613778
34090	8285203	0.099378	-0.046182	9.826385	-0.006582	-0.018157	-0.001606				-0.322584	-0.657721	31.613554
34094	8285228	0.100525	-0.033932	9.823603	0.004962	-0.026079	0.008418	0.295509	-0.246933	-0.922849	-0.321888	-0.661450	31.614789
34097	8285253	0.119967	-0.067382	9.812874	0.008710	-0.005816	-0.007361				-0.320628	-0.662289	31.613738
34101	8285278	0.095074	-0.042190	9.804394	0.005881	0.007430	-0.014444				-0.318832	-0.660334	31.613921
34104	8285303	0.073325	-0.050511	9.852272	0.002398	-0.002030	-0.023788				-0.318450	-0.660644	31.610517
34108	8285328	0.120117	-0.080640	9.833491	0.020511	-0.011908	-0.005050	0.296021	-0.246442	-0.921351	-0.315503	-0.662353	31.609801
34111	8285353	0.069469	-0.051981	9.852256	-0.006285	-0.020567	0.000939				-0.316405	-0.665299	31.609956
34115	8285378	0.092257	-0.031509	9.829029	-0.002868	-0.012603	-0.011645				-0.312390	-0.666521	31.607299
34118	8285403	0.110851	-0.084822	9.821098	0.017586	-0.018722	-0.018562				-0.309840	-0.669217	31.604656
34122	8285428	0.126419	-0.055119	9.810129	0.008598	0.007668	-0.004989	0.295614	-0.247904	-0.919903	-0.308600	-0.668123	31.603935
34125	8285453	0.067481	-0.035892	9.850824	-0.003897	0.001390	-0.013377				-0.309136	-0.667934	31.602020
34129	8285478	0.098000	-0.042555	9.809907	-0.022174	-0.006776	0.007424				-0.310447	-0.673548	31.605364
34132	8285503	0.090733	-0.042284	9.840020	-0.005606	0.011991	-0.000376				-0.311249	-0.671831	31.605294
34136	8285528	0.106259	-0.054334	9.812747	-0.009857	-0.000449	-0.016941	0.294640	-0.246902	-0.919885	-0.312633	-0.671908	31.602865
34139	8285553	0.083136	-0.071816	9.851045	0.004952	-0.004353	0.003649				-0.311929	-0.672529	31.603385
34143	8285578	0.073149	-0.038643	9.837145	-0.000772	0.002827	0.001036				-0.311037	-0.672828	31.601286
34146	8285603	0.087236	-0.058281	9.827708	0.005729	-0.008377	-0.012170				-0.310195	-0.674037	31.599553
34150	8285628	0.087753	-0.002116	9.809696	-0.005676	0.001580	-0.010136	0.294555	-0.245434	-0.921829	-0.310991	-0.673819	31.598096
34153	8285653	0.089501	-0.042277	9.824922	0.009608	0.004961	-0.014116				-0.309591	-0.673119	31.596076
34157	8285678	0.078748	-0.023739	9.808341	-0.008260	-0.009379	-0.006130				-0.309216	-0.677302	31.597972
34160	8285703	0.069469	-0.046650	9.817951	0.006253	-0.005731	-0.020775				-0.308286	-0.678139	31.595000
34164	8285728	0.108165	-0.039019	9.836019	0.011796	0.019483	-0.022896	0.294531	-0.244944	-0.922313	-0.306557	-0.675366	31.591704
34167	8285753	0.111936	0.004154	9.852369	0.008203	-0.013474	0.000580				-0.305383	-0.677295	31.591800
34171	8285778	0.112825	-0.047153	9.838820	0.014088	-0.027262	-0.017649				-0.300865	-0.680098	31.587399
34174	8285803	0.091678	-0.020530	9.853681	0.009134	0.004564	0.005001				-0.299565	-0.679441	31.588110
34178	8285828	0.087689	-0.031297	9.842721	0.009431	0.011465	-0.010115	0.295018	-0.245445	-0.922322	-0.298197	-0.677806	31.586652
34181	8285853	0.108390	-0.056737	9.844315	-0.003855	0.020146	0.000596				-0.298750	-0.674920	31.586724
34185	8285878	0.102926	-0.040658	9.834617	0.006691	0.018418	-0.002740				-0.293815	-0.678614	31.586574
34188	8285903	0.081204	-0.031773	9.849533	-0.015305	-0.007629	-0.015356				-0.295982	-0.679718	31.584378
34192	8285928	0.094746	-0.050385	9.849680	-0.015391	0.010040	-0.008903	0.295013	-0.245940	-0.922828	-0.298171	-0.678286	31.583094
34195	8285953	0.082584	-0.033020	9.841316	-0.005300	-0.001761	-0.002819				-0.298926	-0.678541	31.582701
34199	8285978	0.095955	-0.023334	9.856454	-0.008856	-0.007327	-0.021490				-0.297711	-0.677979	31.580381
34202	8286003	0.116069	0.243440	10.132811	-0.017552	0.012860	-0.002417				-0.300221	-0.676139	31.580025
34206	8286028	0.241710	-0.316476	9.448282	-0.039412	0.029111	-0.012270	0.294515	-0.246428	-0.923832	-0.305845	-0.671978	31.578249
34209	8286053	-0.119107	-0.021224	9.941398	-0.007555	0.005001	-0.007512				-0.306915	-0.671268	31.577175
34213	8286078	0.152650	-0.026817	9.722445	0.001572	-0.007251	0.007781				-0.304143	-0.674779	31.579197
34216	8286103	0.052399	-0.088664	9.859115	-0.011472	-0.020778	-0.003326				-0.305780	-0.677758	31.578737
34220	8286128	0.110459	-0.086073	9.833445	0.022301	0.008592	0.015059	0.294005	-0.245438	-0.924306	-0.302611	-0.676516	31.580885
34223	8286153	0.105456	-0.015093	9.844147	0.004047	-0.005935	-0.002781				-0.302027	-0.677368	31.580489
34227	8286178	0.125673	-0.018851	9.844312	-0.010210	-0.008310	-0.008866				-0.302884	-0.678515	31.578832
34230	8286203	0.103872	-0.016328	9.867469	0.003144	-0.008857	-0.012831				-0.302412	-0.679794	31.576997
34234	8286228	0.119103	-0.036414	9.845694	-0.006068	0.006534	-0.014772	0.294989	-0.245450	-0.923312	-0.303255	-0.678869	31.574871
34237	8286253	0.083206	-0.047953	9.811189	-0.009769	-0.014228	-0.001743				-0.304652	-0.680908	31.574633
34241	8286278	0.137033	-0.032252	9.834829	-0.018176	-0.022383	-0.000587				-0.303028	-0.684441	31.574615
34244	8286303	0.110727	-0.013626	9.835964	-0.003502	-0.000460	-0.009002				-0.303514	-0.684514	31.573319
34248	8286328	0.126187	-0.047214	9.834805	-0.015762	-0.005904	-0.016420	0.295047	-0.245440	-0.921332	-0.305744	-0.685372	31.570972
34251	8286353	0.151280	-0.009121	9.832109	-0.009130	0.004707	-0.005622				-0.307042	-0.684702	31.570159
34255	8286378	0.310500	0.039450	9.941433	-0.043777	0.022972	-0.001775				-0.311162	-0.685635	31.570705
34258	8286403	-0.089269	0.125894	9.661311	-0.031017	0.016797	0.005308				-0.315613	-0.683225	31.571457
34262	8286428	0.016492	-0.347660	9.959811	-0.040136	-0.024818	-0.007975	0.295552	-0.246926	-0.921364	-0.321349	-0.686786	31.570338
34265	8286453	0.313838	-0.006891	9.659023	0.004166	0.001641	0.007376				-0.320765	-0.686545	31.571387
34269	8286478	-0.026436	0.016837	9.974831	-0.007235	0.015846	-0.001489				-0.321436	-0.685361	31.569536
34272	8286503	0.205367	-0.032722	9.742028	-0.013214	-0.007978	-0.013925				-0.323305	-0.686515	31.567549
34276	8286528	-0.005256	0.020815	9.894027	-0.016832	-0.003943	-0.024104	0.294114	-0.247396	-0.921878	-0.325674	-0.687099	31.564095
34279	8286553	0.152028	-0.081999	9.752789	-0.008832	-0.019217	0.015062				-0.326966	-0.689840	31.566274
34283	8286578	0.096285	-0.040778	9.831828	0.003417	-0.000884	-0.014398				-0.322330	-0.688509	31.563376
34286	8286603	0.072145	-0.070822	9.827645	0.001125	0.008386	0.018710				-0.322201	-0.687292	31.566058
34290	8286628	0.089798	-0.065179	9.859298	-0.006615	-0.001013	0.024360	0.294539	-0.246918	-0.923349	-0.323190	-0.687418	31.569543
34293	8286653	0.115987	-0.014726	9.860681	-0.001161	-0.002731	-0.005376				-0.323347	-0.687814	31.568777
34297	8286678	0.066865	-0.015463	9.878178	0.006519	0.005341	-0.025645				-0.321257	-0.690927	31.568215
34300	8286703	0.133648	-0.085843	9.817139	0.012328	-0.000782	-0.003695				-0.319485	-0.691042	31.567687
34304	8286728	0.045308	0.000138	9.845061	0.002183	0.011274	-0.007746	0.295958	-0.246946	-0.923837	-0.319159	-0.689433	31.566571
34307	8286753	0.095228	-0.039511	9.815362	0.000763	-0.014982	0.001431				-0.319052	-0.691578	31.566788
34311	8286778	0.130496	-0.057551	9.847193	0.010936	-0.007120	-0.006291				-0.315492	-0.692366	31.565120
34314	8286803	0.006765	0.026488	9.889992	-0.015904	-0.011821	0.001402				-0.317773	-0.694058	31.565323
34318	8286828	0.103959	-0.098547	9.863620	-0.003055	-0.021093	0.018239	0.294548	-0.247411	-0.923360	-0.318242	-0.697065	31.567946
34321	8286853	0.106696	0.025743	9.911236	0.008602	0.011435	0.016384				-0.317038	-0.695414	31.570291
34325	8286878	0.184465	0.351020	10.091887	-0.100261	-0.023809	0.016189				-0.330279	-0.704119	31.570744
34328	8286903	-0.025476	-0.459463	9.468840	-0.037540	-0.001006	-0.004528				-0.335648	-0.704267	31.570090
34332	8286928	0.183168	0.054937	9.796455	0.013787	-0.003894	0.022396	0.294043	-0.245925	-0.923328	-0.333713	-0.704806	31.573305
34335	8286953	0.081869	-0.069108	9.979954	-0.029494	0.005659	-0.002581				-0.337933	-0.703998	31.572934
34339	8286978	0.089416	0.073580	9.972690	-0.038595	-0.015269	0.022279				-0.335830	-0.706837	31.579049
34342	8287003	0.104592	0.109752	9.864326	-0.040066	-0.008863	0.021528				-0.341607	-0.708088	31.582137
34346	8287028	0.157006	-0.021601	9.855499	-0.067756	-0.016999	0.000730	0.294933	-0.243977	-0.924267	-0.351314	-0.710522	31.582263
34349	8287053	0.110364	-0.122649	9.744380	-0.067461	0.006507	0.006747				-0.360989	-0.709584	31.583222
34353	8287078	-0.243759	0.434706	10.597524	-0.097492	-0.023180	0.038327				-0.367320	-0.714512	31.587609
34356	8287103	0.399263	-0.096978	9.406116	-0.123525	-0.039594	0.047043				-0.385098	-0.720139	31.594390
34360	8287128	0.281341	-0.609672	9.168257	-0.074296	0.019674	0.036004	0.294003	-0.242969	-0.922763	-0.395805	-0.717285	31.599530
34363	8287153	-0.102440	-0.084189	10.002060	-0.026199	0.019839	0.007640				-0.399571	-0.714436	31.600606
34367	8287178	0.238685	0.208978	9.965075	-0.077230	0.021894	0.025001				-0.414339	-0.714695	31.604304
34370	8287203	0.158615	0.137920	9.759014	-0.092570	0.039908	0.044116				-0.427677	-0.708933	31.610593
34374	8287228	-0.087356	-0.094327	10.018646	-0.105536	0.003290	0.027570	0.294068	-0.244934	-0.921820	-0.442843	-0.708431	31.614533
34377	8287253	0.009668	-0.351025	9.641535	-0.067277	-0.028379	0.025170				-0.452525	-0.712468	31.618173
34381	8287278	0.127292	-0.266352	9.665401	-0.042897	-0.019811	0.028458				-0.450555	-0.709899	31.619962
34384	8287303	0.109793	-0.029037	9.793484	-0.033267	0.006692	0.019370				-0.455355	-0.708918	31.622730
34388	8287328	0.111425	0.011457	9.861938	-0.047652	0.004351	-0.004090	0.294034	-0.245433	-0.923316	-0.462173	-0.708300	31.622143
34391	8287353	0.173869	-0.159653	9.871140	-0.042315	-0.010473	0.015016				-0.468261	-0.709782	31.624308
34395	8287378	-0.015920	0.080529	9.886923	-0.069328	0.013353	0.014937				-0.479566	-0.711916	31.628207
34398	8287403	0.789705	0.092998	9.402740	-0.092427	0.025496	-0.021335				-0.492767	-0.708290	31.625123
34402	8287428	0.275660	0.740100	10.365805	-0.226867	0.119302	-0.013621	0.294904	-0.243982	-0.925256	-0.525238	-0.691219	31.623016
34405	8287453	-0.272774	-0.225408	10.209810	-0.180835	0.034037	0.054777				-0.551234	-0.686270	31.630824
34409	8287478	-0.240937	-0.867653	9.478238	-0.086334	-0.030755	0.070730				-0.541566	-0.698525	31.635571
34412	8287503	-0.066649	-0.742357	9.579207	-0.008659	0.003882	-0.002329				-0.542802	-0.697972	31.635231
34416	8287528	0.122477	0.084703	9.894703	-0.019768	-0.021940	0.004634	0.294820	-0.241032	-0.926177	-0.545642	-0.701108	31.635923
34419	8287553	0.122537	-0.160398	9.837882	-0.020775	0.003141	0.010619				-0.548637	-0.700644	31.637446
34423	8287578	0.068990	-0.095530	9.818098	-0.025524	-0.013530	0.004372				-0.573056	-0.699596	31.644638
34426	8287603	0.141019	-0.045796	9.852719	-0.030613	-0.006838	0.013243				-0.577464	-0.700556	31.646541
34430	8287628	0.167344	-0.145343	9.772299	-0.032718	0.012162	0.006631	0.294352	-0.241516	-0.926191	-0.582162	-0.698804	31.647469
34433	8287653	0.113763	-0.129499	9.861039	-0.020687	-0.001670	-0.005805				-0.585115	-0.699052	31.646654
34437	8287678	0.104899	-0.119613	9.753956	-0.039983	0.003071	0.005338				-0.588645	-0.699401	31.650016
34440	8287703	0.074893	-0.201846	9.792418	-0.020097	-0.004326	-0.014856				-0.591498	-0.700042	31.647899
34444	8287728	0.124785	-0.116059	9.806202	-0.006561	0.001222	0.010273	0.292942	-0.241981	-0.925714	-0.592456	-0.699852	31.649366
34447	8287753	0.106959	-0.115133	9.822544	-0.023681	0.011571	-0.008249				-0.595833	-0.698207	31.648157
34451	8287778	0.115409	-0.106806	9.803367	-0.012848	-0.009671	-0.014275				-0.594977	-0.703016	31.646749
34454	8287803	0.105363	-0.098464	9.834823	-0.000742	-0.009793	0.008602				-0.595099	-0.704406	31.647982
34458	8287828	0.093604	-0.109511	9.811457	0.011319	-0.007436	-0.011998	0.293916	-0.242983	-0.925733	-0.593457	-0.705489	31.646278
34461	8287853	0.126898	-0.091567	9.829462	0.000572	-0.001384	-0.004980				-0.593366	-0.705695	31.645564
34465	8287878	0.083897	-0.116480	9.845699	-0.015622	-0.001442	-0.012815				-0.596802	-0.705579	31.643498
34468	8287903	0.084837	-0.096269	9.841527	-0.002187	0.007604	0.008681				-0.597131	-0.704477	31.644736
34472	8287928	0.098958	-0.108245	9.830695	-0.005740	-0.017998	-0.002885	0.294361	-0.242008	-0.926202	-0.597948	-0.707059	31.644345
34475	8287953	0.106564	-0.095991	9.838937	-0.014602	0.003460	0.008024				-0.600054	-0.706551	31.645491
34479	8287978	0.083458	-0.093718	9.830539	-0.014491	0.006174	0.013840				-0.597712	-0.707869	31.645870
34482	8288003	0.095887	-0.099009	9.830642	-0.029536	0.003314	0.003876				-0.601949	-0.707388	31.646425
34486	8288028	0.095507	-0.085400	9.819619	0.000218	0.018924	0.016749	0.293416	-0.241003	-0.925194	-0.601947	-0.704652	31.648801
34489	8288053	0.074329	-0.095404	9.833215	-0.026970	-0.009516	-0.000593				-0.605809	-0.706016	31.648727
34493	8288078	0.102484	-0.093598	9.823815	-0.025569	0.014606	-0.004165				-0.605461	-0.703568	31.649588
34496	8288103	0.098339	-0.078655	9.831959	-0.023268	-0.003856	-0.018869				-0.608761	-0.704149	31.646892
34500	8288128	0.097152	-0.088159	9.819642	-0.010557	0.000598	0.003248	0.292470	-0.241478	-0.925210	-0.610279	-0.704058	31.647358
34503	8288153	0.113368	-0.094891	9.825254	-0.035667	0.012876	0.000055				-0.615388	-0.702214	31.647349
34507	8288178	0.091949	-0.109652	9.827905	-0.008611	0.006425	0.000936				-0.613130	-0.706010	31.647667
34510	8288203	0.094552	-0.095984	9.816906	0.009023	0.005630	-0.010493				-0.611820	-0.705220	31.646159
34514	8288228	0.095485	-0.067856	9.826427	-0.008728	-0.001042	-0.016014	0.293404	-0.243474	-0.927231	-0.613041	-0.705393	31.643865
34517	8288253	0.111032	-0.106800	9.819799	-0.014479	-0.005491	-0.010930				-0.615096	-0.706197	31.642310
34521	8288278	0.091657	-0.109809	9.847108	-0.021890	0.009950	-0.013900				-0.619014	-0.703655	31.642088
34524	8288303	0.091754	-0.098966	9.838837	-0.008650	0.004925	-0.001001				-0.620252	-0.702951	31.641936
34528	8288328	0.098396	-0.099944	9.834775	0.002518	0.012054	0.003274	0.292955	-0.243461	-0.926244	-0.619896	-0.701220	31.642385
34531	8288353	0.076547	-0.089612	9.840090	-0.000581	0.004497	0.000019				-0.619980	-0.700575	31.642384
34535	8288378	0.106500	-0.081174	9.810081	-0.001720	0.012536	-0.007904				-0.619937	-0.701748	31.639952
34538	8288403	0.114555	-0.083635	9.823866	-0.003229	0.007358	-0.014320				-0.620375	-0.700716	31.637893
34542	8288428	0.078025	-0.103040	9.874424	-0.012453	0.001651	-0.007614	0.292975	-0.242964	-0.925242	-0.622145	-0.700491	31.636806
34545	8288453	0.122344	-0.111914	9.802056	0.002562	-0.017408	-0.008626				-0.621764	-0.702998	31.635592
34549	8288478	0.079087	-0.084257	9.848313	-0.014260	0.008804	0.000347				-0.622025	-0.700093	31.637101
34552	8288503	0.105143	-0.103876	9.855415	-0.000848	0.007018	-0.000846				-0.622145	-0.699089	31.636980
34556	8288528	0.117451	-0.095676	9.844499	-0.004980	0.000940	0.003833	0.293443	-0.242480	-0.925229	-0.622865	-0.698949	31.637524
34559	8288553	0.090200	-0.076042	9.830528	0.000861	-0.000568	0.008489				-0.622756	-0.699017	31.638743
34563	8288578	0.091677	-0.093608	9.826486	-0.012097	0.005853	0.000350				-0.621970	-0.702125	31.636568
34566	8288603	0.101020	-0.087998	9.826525	-0.004952	0.010550	0.003652				-0.622685	-0.700608	31.637073
34570	8288628	0.082662	-0.046327	9.861928	-0.001179	0.001034	0.016135	0.292918	-0.241491	-0.926198	-0.622882	-0.700435	31.639378
34573	8288653	0.125870	-0.091731	9.818480	-0.012350	-0.014699	0.000833				-0.624653	-0.702539	31.639526
34577	8288678	0.121639	-0.087722	9.797861	-0.001943	0.004831	-0.011830				-0.620784	-0.701338	31.639162
34580	8288703	0.085402	-0.059756	9.871590	-0.009522	0.005785	-0.001475				-0.622145	-0.700512	31.638938
34584	8288728	0.097652	-0.112406	9.822464	-0.016055	-0.007658	-0.014468	0.291462	-0.240976	-0.926688	-0.624420	-0.701631	31.636881
34587	8288753	0.118425	-0.055249	9.822424	-0.000180	-0.014734	0.011769				-0.624467	-0.703723	31.638584
34591	8288778	0.116118	-0.089081	9.834860	-0.000438	-0.004053	0.009924				-0.624023	-0.705807	31.638731
34594	8288803	0.103033	-0.109728	9.808777	-0.023799	-0.005211	0.007629				-0.627445	-0.706542	31.639833
34598	8288828	0.102083	-0.075682	9.852564	0.000408	-0.000229	-0.022031	0.292942	-0.241981	-0.925714	-0.627348	-0.706609	31.636677
34601	8288853	0.107653	-0.081046	9.826547	0.004058	0.017130	-0.023441				-0.626725	-0.704192	31.633295
34605	8288878	0.089654	-0.057180	9.845554	-0.006624	0.003807	-0.004503				-0.626088	-0.709671	31.638010
34608	8288903	0.122885	-0.087504	9.812959	-0.000791	0.005272	-0.009426				-0.626184	-0.708930	31.636650
34612	8288928	0.124791	-0.060815	9.845800	-0.017986	0.011796	-0.003988	0.294835	-0.241030	-0.925682	-0.628753	-0.707247	31.636060
34615	8288953	0.116148	-0.077096	9.822480	-0.023194	-0.011978	-0.001064				-0.632074	-0.708964	31.635922
34619	8288978	0.111667	-0.078165	9.863606	0.003368	-0.013167	-0.002748				-0.625395	-0.708227	31.632592
34622	8289003	0.123055	-0.112953	9.847332	0.002809	-0.001755	-0.019877				-0.624958	-0.708510	31.629755
34626	8289028	0.122925	-0.092989	9.844520	-0.008957	-0.009339	-0.020130	0.295291	-0.243017	-0.927705	-0.626205	-0.709879	31.626877
34629	8289053	0.132046	-0.061992	9.833506	-0.009444	-0.005944	-0.006790				-0.627546	-0.710741	31.625920
34633	8289078	0.103684	-0.075863	9.811417	-0.010298	-0.003296	0.007820				-0.628767	-0.713564	31.628070
34636	8289103	0.113221	-0.059743	9.811430	-0.025627	-0.009759	-0.006093				-0.632427	-0.714971	31.627213
34640	8289128	0.093978	-0.063922	9.842868	-0.017117	-0.009364	-0.006412	0.292899	-0.241988	-0.927199	-0.634867	-0.716322	31.626305
34643	8289153	0.107912	-0.085165	9.841654	-0.016603	-0.020158	0.018643				-0.637279	-0.719180	31.628999
34647	8289178	0.096607	-0.087943	9.853927	0.000325	0.012428	0.017378				-0.633944	-0.716884	31.628052
34650	8289203	0.124280	-0.088950	9.839036	-0.011975	-0.007182	-0.001405				-0.635657	-0.717915	31.627855
34654	8289228	0.106560	-0.081296	9.826544	-0.012770	-0.002737	0.012600	0.292428	-0.240004	-0.925670	-0.637509	-0.718287	31.629666
34657	8289253	0.087724	-0.090792	9.825076	-0.000268	0.004880	0.006330				-0.637558	-0.717578	31.630566
34661	8289278	0.112547	-0.109380	9.833537	-0.012280	-0.015621	0.005327				-0.639442	-0.724881	31.633314
34664	8289303	0.108682	-0.128137	9.829452	0.001027	-0.014777	0.001232				-0.639297	-0.726996	31.633509
34668	8289328	0.122127	-0.107959	9.815756	-0.008340	-0.022024	0.003251	0.292918	-0.241491	-0.926198	-0.640498	-0.730145	31.634006
34671	8289353	0.096791	-0.077518	9.834695	-0.032523	0.002171	0.006367				-0.645168	-0.729824	31.634914
34675	8289378	0.103924	-0.093432	9.825197	-0.011869	0.001994	0.006941				-0.640012	-0.730647	31.636182
34678	8289403	0.087687	-0.100340	9.840189	-0.009710	0.005887	0.005642				-0.641413	-0.729794	31.636984
34682	8289428	0.098431	-0.108118	9.856747	-0.005198	-0.001347	-0.008644	0.294289	-0.242020	-0.928676	-0.642142	-0.730001	31.635740
34685	8289453	0.109456	-0.113268	9.833525	0.001095	0.013715	-0.004099				-0.641977	-0.728043	31.635127
34689	8289478	0.104966	-0.093056	9.848519	0.003503	0.003868	0.017054				-0.644093	-0.730605	31.639338
34692	8289503	0.112564	-0.117379	9.843153	-0.004409	-0.015225	-0.005580				-0.644714	-0.732795	31.638556
34696	8289528	0.088272	-0.131196	9.838924	0.000899	-0.010951	-0.007103	0.293329	-0.241016	-0.928163	-0.644573	-0.734375	31.637549
34699	8289553	0.094823	-0.110940	9.830676	-0.003354	-0.000624	0.018577				-0.645087	-0.734434	31.640214
34703	8289578	0.106677	-0.108028	9.829375	-0.006025	0.015362	0.004520				-0.643031	-0.731715	31.637804
34706	8289603	0.123012	-0.090357	9.822568	-0.004385	-0.008559	0.005597				-0.643669	-0.732932	31.638627
34710	8289628	0.115840	-0.097020	9.849979	-0.004400	0.011915	0.000967	0.292899	-0.241988	-0.927199	-0.644301	-0.731224	31.638739
34713	8289653	0.121640	-0.095694	9.822577	-0.007148	0.005314	0.006102				-0.645336	-0.730453	31.639602
34717	8289678	0.096147	-0.109549	9.832048	-0.016302	-0.007746	0.002371				-0.644906	-0.733896	31.641997
34720	8289703	0.085002	-0.116625	9.849819	-0.015251	0.009884	-0.016615				-0.647060	-0.732507	31.639605
34724	8289728	0.089207	-0.104458	9.822380	-0.007582	0.005464	-0.000200	0.292417	-0.240993	-0.926683	-0.648146	-0.731725	31.639566
34727	8289753	0.086021	-0.098869	9.848400	-0.002800	0.013360	-0.001132				-0.648545	-0.729813	31.639386
34731	8289778	0.099022	-0.140516	9.837657	-0.006871	0.010286	0.006153				-0.647927	-0.730978	31.641503
34734	8289803	0.087030	-0.128833	9.811468	-0.017101	0.001790	0.006837				-0.650389	-0.730710	31.642483
34738	8289828	0.090603	-0.105608	9.851207	-0.006317	-0.013490	0.001661	0.292408	-0.240500	-0.926672	-0.651297	-0.732640	31.642739
34741	8289853	0.086897	-0.116562	9.819662	-0.010534	-0.012533	0.014628				-0.652834	-0.734411	31.644864
34745	8289878	0.116476	-0.120215	9.821250	-0.016657	0.002782	0.021856				-0.651873	-0.731800	31.645967
34748	8289903	0.096321	-0.120371	9.837574	-0.011487	-0.012217	-0.010386				-0.653500	-0.733566	31.644494
34752	8289928	0.119268	-0.128072	9.828155	0.002404	0.012207	0.015362	0.293358	-0.241012	-0.927173	-0.653183	-0.731793	31.646671
34755	8289953	0.084042	-0.121657	9.853947	0.002575	-0.009724	0.006700				-0.652827	-0.733175	31.647644
34759	8289978	0.105489	-0.135057	9.839055	-0.014104	0.030683	-0.030902				-0.654435	-0.730726	31.644615
34762	8290003	0.096969	-0.096193	9.851217	-0.021896	-0.000905	-0.000112				-0.657571	-0.730855	31.644601
34766	8290028	0.090762	-0.119030	9.840272	-0.006962	-0.000653	0.006591	0.292799	-0.240522	-0.929639	-0.658580	-0.730938	31.645542
34769	8290053	0.122313	-0.113143	9.810289	0.004792	-0.016427	-0.000860				-0.657892	-0.733292	31.645448
34773	8290078	0.091905	-0.102873	9.829257	-0.003499	-0.002900	-0.005296				-0.656467	-0.734249	31.646037
34776	8290103	0.105620	-0.110734	9.814283	0.004698	0.005239	0.008859				-0.655810	-0.733484	31.647300
34780	8290128	0.142037	-0.111604	9.810430	-0.007065	0.021751	0.015046	0.291858	-0.240504	-0.929148	-0.656849	-0.730344	31.649426
34783	8290153	0.120150	-0.098431	9.818458	-0.002895	0.018461	0.002818				-0.657269	-0.727695	31.649798
34787	8290178	0.123125	-0.111601	9.840477	-0.001456	0.000633	0.010253				-0.654140	-0.734096	31.651027
34790	8290203	0.109831	-0.122835	9.818469	-0.007410	0.004537	-0.005831				-0.655191	-0.733456	31.650177
34794	8290228	0.112410	-0.114746	9.840402	-0.008428	-0.001648	0.009358	0.292410	-0.242969	-0.928214	-0.656415	-0.733677	31.651523
34797	8290253	0.109871	-0.121374	9.818467	0.009385	-0.001228	-0.003216				-0.655065	-0.733858	31.651058
34801	8290278	0.102937	-0.127076	9.833529	-0.017801	0.009805	0.010705				-0.657155	-0.731111	31.653702
34804	8290303	0.111101	-0.106585	9.826649	0.004436	-0.003618	0.006945				-0.656533	-0.731618	31.654703
34808	8290328	0.105788	-0.121528	9.818439	0.008704	0.008233	-0.003044	0.292890	-0.241496	-0.927187	-0.655281	-0.730444	31.654262
34811	8290353	0.115080	-0.119848	9.829466	0.004472	0.010253	-0.009738				-0.654622	-0.728991	31.652852
34815	8290378	0.112286	-0.113102	9.830793	0.021191	0.011355	-0.005130				-0.648637	-0.730512	31.653325
34818	8290403	0.092956	-0.102673	9.832011	0.005507	0.012147	0.009230				-0.647865	-0.728757	31.654628
34822	8290428	0.083736	-0.100445	9.826450	-0.007908	0.004613	0.008051	0.293841	-0.240525	-0.926665	-0.649012	-0.728083	31.655772
34825	8290453	0.083443	-0.098868	9.827807	-0.000216	0.015555	0.010851				-0.649062	-0.725837	31.657314
34829	8290478	0.098844	-0.121502	9.844449	0.006698	0.004648	0.030781				-0.645202	-0.727420	31.659022
34832	8290503	0.090035	-0.106787	9.863542	-0.001481	0.018093	0.017828				-0.645446	-0.724800	31.661548
34836	8290528	0.101122	-0.094358	9.832037	0.014941	0.011000	0.005424	0.292890	-0.241496	-0.927187	-0.643315	-0.723215	31.662307
34839	8290553	0.118596	-0.066102	9.810123	0.005654	-0.011882	0.026754				-0.642554	-0.724874	31.666160
34843	8290578	0.086161	-0.088111	9.847007	-0.003803	-0.005388	-0.002877				-0.641656	-0.723251	31.663695
34846	8290603	0.086172	-0.098807	9.842917	0.008506	0.005668	0.006084				-0.640449	-0.722429	31.664558
34850	8290628	0.091377	-0.085202	9.847029	0.002466	0.005484	-0.006299	0.292926	-0.243465	-0.927234	-0.640084	-0.721654	31.663648
34853	8290653	0.094206	-0.084071	9.838806	-0.007446	0.001398	0.000946				-0.641152	-0.721452	31.663773
34857	8290678	0.072624	-0.096575	9.841453	-0.013427	0.006875	0.006790				-0.639010	-0.723822	31.668683
34860	8290703	0.087906	-0.101432	9.829225	0.009359	-0.005373	0.000009				-0.637669	-0.724591	31.668691
34864	8290728	0.087744	-0.085570	9.808598	-0.004132	-0.005174	-0.019379	0.292401	-0.242477	-0.928203	-0.638226	-0.725363	31.665923
34867	8290753	0.085192	-0.107089	9.829222	0.001068	-0.007461	-0.001284				-0.638071	-0.726434	31.665751
34871	8290778	0.084899	-0.089555	9.836021	-0.011498	-0.001933	-0.016996				-0.638662	-0.726970	31.663876
34874	8290803	0.073037	-0.093794	9.835949	-0.003552	-0.012882	0.013240				-0.639196	-0.728794	31.665789
34878	8290828	0.119927	-0.079293	9.830742	0.001520	-0.003161	-0.010817	0.291404	-0.240985	-0.928667	-0.638958	-0.729264	31.664254
34881	8290853	0.104187	-0.096069	9.832048	-0.011054	-0.011337	0.003161				-0.640547	-0.730882	31.664722
34885	8290878	0.101006	-0.085369	9.832003	-0.015573	-0.002769	-0.017981				-0.638751	-0.732264	31.661746
34888	8290903	0.097410	-0.116385	9.843050	-0.010382	0.004661	-0.018224				-0.640205	-0.731625	31.659131
34892	8290928	0.107892	-0.090556	9.844415	-0.009750	0.001723	-0.010914	0.291921	-0.240000	-0.926662	-0.641582	-0.731396	31.657561
34895	8290953	0.071297	-0.092214	9.834567	0.011513	0.001900	0.013991				-0.639958	-0.731102	31.659563
34899	8290978	0.079392	-0.089237	9.838730	0.020815	0.005074	0.009099				-0.637957	-0.733777	31.659592
34902	8291003	0.094585	-0.091938	9.841578	0.008041	-0.015645	-0.005987				-0.636794	-0.736028	31.658763
34906	8291028	0.102596	-0.106596	9.847166	0.006831	0.002007	0.000207	0.292406	-0.241982	-0.927696	-0.635816	-0.735740	31.658789
34909	8291053	0.100045	-0.098638	9.832046	0.002240	-0.012551	-0.000997				-0.635494	-0.737539	31.658665
34913	8291078	0.101370	-0.102732	9.827946	0.002100	-0.005141	0.004882				-0.631652	-0.737676	31.661789
34916	8291103	0.099819	-0.101347	9.840281	-0.001553	0.004192	-0.003588				-0.631868	-0.737082	31.661271
34920	8291128	0.109305	-0.078215	9.822434	0.015596	-0.009723	-0.010067	0.291956	-0.243451	-0.927733	-0.629616	-0.738490	31.659850
34923	8291153	0.082423	-0.104372	9.833306	0.003409	-0.004828	-0.007072				-0.629114	-0.739193	31.658835
34927	8291178	0.111966	-0.099868	9.843103	-0.013913	0.007641	-0.006881				-0.629025	-0.740709	31.659023
34930	8291203	0.105344	-0.099806	9.816993	0.008734	0.017641	0.012480				-0.627797	-0.738162	31.660789
34934	8291228	0.113441	-0.094297	9.828009	0.005995	-0.002269	0.002171	0.292396	-0.242972	-0.928709	-0.626942	-0.738484	31.661099
34937	8291253	0.116331	-0.108995	9.841795	0.009041	-0.004292	0.012627				-0.625671	-0.739079	31.662918
34941	8291278	0.099877	-0.099765	9.843014	0.020930	-0.007699	0.003116				-0.621200	-0.741787	31.660820
34944	8291303	0.114800	-0.105231	9.837651	-0.000642	0.002311	0.004140				-0.621299	-0.741450	31.661404
34948	8291328	0.118951	-0.106365	9.848658	-0.007293	-0.002086	-0.000709	0.292401	-0.242477	-0.928203	-0.622342	-0.741749	31.661303
34951	8291353	0.114797	-0.098352	9.837623	0.008310	-0.002873	-0.019839				-0.621115	-0.742192	31.658470
34955	8291378	0.121763	-0.089875	9.843132	0.020480	-0.026490	-0.000103				-0.615890	-0.747641	31.663475
34958	8291403	0.122281	-0.079166	9.851334	0.018385	0.017875	-0.004804				-0.613247	-0.745088	31.662751
34962	8291428	0.118338	-0.065763	9.841654	0.018065	-0.000420	-0.004880	0.293351	-0.242988	-0.928704	-0.610650	-0.745156	31.662051
34965	8291453	0.122728	-0.081869	9.833511	0.021476	-0.002743	-0.000657				-0.607573	-0.745550	31.661969
34969	8291478	0.133362	-0.078937	9.841805	0.020082	0.001059	0.005716				-0.604308	-0.746940	31.660349
34972	8291503	0.113182	-0.079442	9.840293	0.015621	-0.004967	-0.009212				-0.602053	-0.747665	31.659037
34976	8291528	0.136155	-0.078936	9.850055	0.008607	-0.004248	0.014107	0.292406	-0.241982	-0.927696	-0.600847	-0.748253	31.661066
34979	8291553	0.125755	-0.092489	9.819857	0.027557	-0.011376	-0.007835				-0.596885	-0.749894	31.659965
34983	8291578	0.121826	-0.099801	9.818475	-0.006227	-0.000280	0.003508				-0.596418	-0.750185	31.661720
34986	8291603	0.099729	-0.084952	9.836116	0.017078	-0.005518	-0.000766				-0.593971	-0.750976	31.661621
34990	8291628	0.106651	-0.092842	9.830695	0.029337	-0.005920	0.007628	0.292488	-0.242463	-0.925233	-0.589783	-0.751813	31.662722
34993	8291653	0.099408	-0.074123	9.842940	0.010084	0.002383	0.010844				-0.588359	-0.751456	31.664268
34997	8291678	0.105228	-0.067629	9.823741	0.012076	-0.024502	0.021523				-0.581882	-0.758435	31.665011
35000	8291703	0.129169	-0.059014	9.834857	-0.004251	-0.014077	0.007431				-0.582506	-0.760441	31.666100
35004	8291728	0.123929	-0.069767	9.819763	0.021510	0.004582	0.011322	0.291976	-0.242954	-0.926732	-0.579446	-0.759768	31.667711
35007	8291753	0.119336	-0.105181	9.815729	-0.006583	-0.014986	0.008385				-0.580405	-0.761902	31.668942
35011	8291778	0.149906	-0.076372	9.806251	0.002334	-0.002627	-0.005446				-0.575427	-0.761298	31.668727
35014	8291803	0.136814	-0.097874	9.828178	0.016019	-0.017202	0.009015				-0.573150	-0.763749	31.670038
35018	8291828	0.114416	-0.075184	9.837555	0.028922	-0.001809	0.021569	0.291446	-0.242460	-0.928207	-0.569048	-0.763977	31.673134
35021	8291853	0.116189	-0.090330	9.832126	0.013688	-0.008361	0.004829				-0.567097	-0.765168	31.673835
35025	8291878	0.113099	-0.075607	9.837546	-0.011103	-0.006646	0.019240				-0.569386	-0.768539	31.677377
35028	8291903	0.125241	-0.078181	9.833517	-0.009924	0.012025	0.011259				-0.570829	-0.766800	31.678976
35032	8291928	0.128272	-0.095423	9.825368	0.007050	0.001267	0.005782	0.291002	-0.241953	-0.926713	-0.569830	-0.766610	31.679809
35035	8291953	0.141597	-0.090841	9.836427	0.019352	0.012305	0.006218				-0.567070	-0.764839	31.680681
35039	8291978	0.141981	-0.087103	9.822686	0.012763	-0.004733	-0.000337				-0.563801	-0.769982	31.680727
35042	8292003	0.114327	-0.083476	9.830724	-0.000694	0.016594	0.021520				-0.563941	-0.767575	31.683789
35046	8292028	0.107875	-0.087543	9.840283	0.016797	0.000259	0.012629	0.291478	-0.243443	-0.927735	-0.561560	-0.767520	31.685602
35049	8292053	0.123717	-0.056253	9.826581	0.018279	0.004444	0.018246				-0.558976	-0.766858	31.688204
35053	8292078	0.111506	-0.066053	9.836134	0.006640	0.003205	0.004490				-0.555605	-0.766786	31.687378
35056	8292103	0.099752	-0.091908	9.838885	-0.000039	0.001462	0.009161				-0.555629	-0.766564	31.688699
35060	8292128	0.110036	-0.072494	9.871800	0.016896	-0.005120	0.009029	0.292018	-0.244429	-0.926272	-0.553226	-0.767285	31.689996
35063	8292153	0.115627	-0.065742	9.841638	0.030215	0.001173	0.007997				-0.548913	-0.767106	31.691134
35067	8292178	0.119784	-0.071188	9.822486	0.019357	0.005314	0.023741				-0.545665	-0.767333	31.696262
35070	8292203	0.104763	-0.064663	9.834700	0.021616	0.004253	0.041567				-0.542648	-0.766667	31.702211
35074	8292228	0.097925	-0.067391	9.836041	0.021797	0.006296	0.032641	0.291569	-0.244416	-0.925284	-0.539588	-0.765721	31.706876
35077	8292253	0.093898	-0.066141	9.826403	0.022125	0.008984	0.020084				-0.536458	-0.764407	31.709740
35081	8292278	0.070804	-0.070504	9.842725	0.034995	0.007530	0.033832				-0.528076	-0.765923	31.713115
35084	8292303	0.096555	-0.062105	9.838753	0.024061	0.002809	0.043166				-0.524712	-0.765463	31.719299
35088	8292328	0.079687	-0.023168	9.839893	0.030601	-0.004579	0.067903	0.290566	-0.243419	-0.926255	-0.520459	-0.766031	31.729031
35091	8292353	0.082746	0.030958	9.861686	0.038733	-0.005224	0.065173				-0.515036	-0.766695	31.738368
35095	8292378	0.058355	0.031674	9.861508	0.035918	0.003390	0.102307				-0.510128	-0.765604	31.746817
35098	8292403	0.070294	-0.025975	9.864518	0.026551	-0.017600	0.126384				-0.506568	-0.767964	31.764954
35102	8292428	0.036305	-0.022507	9.843702	0.037354	-0.001070	0.145648	0.290566	-0.243419	-0.926255	-0.501497	-0.767934	31.785813
35105	8292453	0.021887	0.059429	9.828255	0.044571	-0.025165	0.131793				-0.495367	-0.771374	31.804730
35109	8292478	0.133053	0.028601	9.860670	0.006700	-0.015363	0.165723				-0.493183	-0.772103	31.819175
35112	8292503	0.064614	0.023487	9.805341	0.016642	-0.015245	0.183092				-0.491154	-0.774061	31.845433
35116	8292528	0.010371	-0.074445	9.825858	0.016735	-0.022589	0.197867	0.291059	-0.243425	-0.925758	-0.489141	-0.777054	31.873815
35119	8292553	0.033428	-0.037249	9.904081	0.016762	-0.006416	0.217466				-0.487163	-0.777708	31.904972
35123	8292578	0.076300	-0.025030	9.797347	0.020620	-0.031973	0.224450				-0.478252	-0.786319	31.925154
35126	8292603	0.049577	0.029819	9.809340	0.012989	-0.018410	0.228120				-0.476841	-0.788684	31.957857
35130	8292628	0.076919	-0.115048	9.863485	0.007817	-0.003548	0.225438	0.290637	-0.244890	-0.924806	-0.476166	-0.788923	31.990155
35133	8292653	0.042962	-0.089917	9.824764	0.033575	-0.015561	0.219901				-0.471791	-0.790892	32.021673
35137	8292678	0.075596	0.019416	9.808166	0.005196	-0.024350	0.217660				-0.471627	-0.794319	32.052750
35140	8292703	0.018782	0.002512	9.843496	0.020212	-0.036301	0.256443				-0.469243	-0.799217	32.089523
35144	8292728	0.018848	0.089799	9.804824	0.006554	-0.020657	0.271210	0.289275	-0.246335	-0.923363	-0.468848	-0.801858	32.128394
35147	8292753	-0.027943	0.028630	9.832130	0.010821	-0.014839	0.317310				-0.467935	-0.803612	32.173869
35151	8292778	0.052259	0.126795	9.802177	0.014745	-0.017637	0.321397				-0.460762	-0.807494	32.206249
35154	8292803	0.222734	-0.028318	9.792878	-0.007437	-0.026461	0.347093				-0.462530	-0.810884	32.256005
35158	8292828	0.281555	-0.063685	9.770073	-0.007856	-0.010996	0.333852	0.288300	-0.246816	-0.924369	-0.464333	-0.812072	32.303839
35161	8292853	0.239074	-0.138371	9.779625	-0.000432	-0.000487	0.329009				-0.465062	-0.811760	32.350975
35165	8292878	0.225795	-0.191972	9.871601	0.003304	-0.003453	0.287418				-0.461287	-0.815500	32.390782
35168	8292903	0.272937	-0.245158	9.826841	0.005376	-0.000764	0.261191				-0.461050	-0.815308	32.428195
35172	8292928	0.194431	-0.179373	9.845286	-0.012259	0.013606	0.223039	0.285887	-0.246284	-0.924864	-0.463259	-0.813102	32.460136
35175	8292953	0.175579	-0.163456	9.819042	-0.001277	0.000429	0.204438				-0.463858	-0.812803	32.489426
35179	8292978	0.184632	-0.155131	9.845138	0.001997	-0.000130	0.205502				-0.461872	-0.814076	32.536940
35182	8293003	0.178810	-0.040783	9.843361	0.001605	-0.000907	0.198653				-0.462047	-0.813976	32.565404
35186	8293028	0.144617	-0.104854	9.826880	-0.013727	0.006823	0.164433	0.285842	-0.247773	-0.927373	-0.464347	-0.812809	32.588947
35189	8293053	0.099940	-0.102896	9.866340	-0.029509	-0.011420	0.165308				-0.468911	-0.814251	32.612647
35193	8293078	0.130437	-0.234454	9.829939	-0.018543	0.001104	0.170918				-0.465699	-0.813657	32.642984
35196	8293103	0.194622	-0.102498	9.840928	-0.001283	0.011612	0.135797				-0.466158	-0.811835	32.662424
35200	8293128	0.100302	-0.105607	9.795025	-0.005256	-0.000378	0.127444	0.284916	-0.247752	-0.926388	-0.467170	-0.811741	32.680684
35203	8293153	0.144786	-0.051952	9.873339	-0.006568	0.012353	0.130230				-0.468374	-0.809819	32.699326
35207	8293178	0.147386	-0.010502	9.801908	0.004269	0.020929	0.168307				-0.469214	-0.811487	32.728755
35210	8293203	0.085881	-0.175399	9.881572	0.001359	-0.007491	0.157022				-0.469338	-0.812376	32.751262
35214	8293228	0.099214	-0.080906	9.875865	0.006336	0.006939	0.142650	0.285433	-0.246766	-0.924383	-0.468720	-0.811214	32.771688
35217	8293253	0.137305	0.027124	9.818169	-0.007264	-0.007831	0.147329				-0.470060	-0.812163	32.792810
35221	8293278	0.137489	-0.071082	9.839065	0.002316	-0.011651	0.140594				-0.467625	-0.812298	32.810745
35224	8293303	0.097507	-0.109663	9.829315	0.000088	-0.010788	0.163531				-0.467945	-0.813652	32.834177
35228	8293328	0.101194	-0.005899	9.824894	-0.014010	-0.000231	0.141901	0.284955	-0.246758	-0.924385	-0.470241	-0.813519	32.854505
35231	8293353	0.112193	-0.037855	9.863479	-0.002952	0.007141	0.167111				-0.471003	-0.812299	32.878442
35235	8293378	0.157549	-0.043878	9.806194	0.010894	0.004481	0.171816				-0.468119	-0.815125	32.900522
35238	8293403	0.135188	-0.011960	9.822396	0.004567	-0.004515	0.164363				-0.467800	-0.815579	32.924067
35242	8293428	0.123515	-0.032316	9.833353	-0.000951	-0.016975	0.189383	0.283579	-0.248206	-0.923437	-0.468323	-0.817789	32.951217
35245	8293453	0.147992	0.034127	9.844282	-0.006753	-0.007224	0.217211				-0.469735	-0.818569	32.982339
35249	8293478	0.083389	0.026086	9.782148	0.005002	0.006133	0.230844				-0.466588	-0.816924	33.008479
35252	8293503	0.103930	0.157389	9.835357	0.004612	0.007492	0.263558				-0.466465	-0.815543	33.046233
35256	8293528	0.074451	0.070269	9.825828	-0.016917	-0.006351	0.290555	0.283659	-0.250168	-0.921999	-0.469481	-0.816113	33.087863
35259	8293553	0.055244	0.040639	9.846373	0.001110	0.022052	0.321081				-0.469975	-0.812577	33.133830
35263	8293578	0.136987	0.044754	9.826344	-0.000224	0.003596	0.342228				-0.469374	-0.817478	33.168283
35266	8293603	0.074013	-0.000808	9.816457	0.007321	0.011066	0.376429				-0.469093	-0.815451	33.222193
35270	8293628	0.216106	-0.149354	9.805559	0.009786	-0.005408	0.361498	0.283630	-0.250173	-0.922988	-0.468429	-0.815802	33.273983
35273	8293653	0.071186	-0.085612	9.823569	0.007752	0.010571	0.374424				-0.468081	-0.813850	33.327603
35277	8293678	0.124305	-0.110336	9.828123	0.008717	0.021145	0.366886				-0.466159	-0.810314	33.372765
35280	8293703	0.126558	-0.065746	9.837597	0.018978	-0.007196	0.352302				-0.464154	-0.810935	33.423248
35284	8293728	0.212209	-0.091647	9.825921	-0.015974	0.008002	0.346957	0.282234	-0.250636	-0.922017	-0.467145	-0.809385	33.472939
35287	8293753	0.169558	0.026606	9.863648	0.013201	0.001410	0.350828				-0.465964	-0.808774	33.523194
35291	8293778	0.128432	-0.022719	9.816902	0.012746	0.017053	0.354865				-0.463428	-0.806086	33.577600
35294	8293803	0.103824	-0.094653	9.832053	-0.004588	0.004221	0.350372				-0.464791	-0.805074	33.627790
35298	8293828	0.064392	-0.054595	9.885150	0.006229	0.032362	0.378245	0.281316	-0.252589	-0.922068	-0.464657	-0.800000	33.681934
35301	8293853	0.068748	0.086613	9.835338	0.000523	-0.001287	0.376627				-0.465335	-0.799746	33.735886
35305	8293878	0.120993	0.017489	9.851006	-0.003184	-0.008763	0.407213				-0.462493	-0.801683	33.790829
35308	8293903	0.067764	-0.023884	9.819232	0.008909	-0.004862	0.415508				-0.462050	-0.801899	33.850368
35312	8293928	0.019546	-0.012399	9.844918	-0.000627	0.018984	0.436457	0.279882	-0.252564	-0.922075	-0.463013	-0.798675	33.912868
35315	8293953	0.013925	-0.006995	9.859962	0.005579	0.021645	0.447081				-0.463104	-0.795057	33.976888
35319	8293978	0.119529	-0.075175	9.875985	0.010769	-0.001127	0.475465				-0.460845	-0.799541	34.035205
35322	8294003	0.140503	-0.075449	9.777377	-0.001971	0.010578	0.477517				-0.462080	-0.797474	34.103599
35326	8294028	0.096360	-0.165890	9.870630	0.006181	0.009257	0.476807	0.278987	-0.255007	-0.921643	-0.462144	-0.795598	34.171886
35329	8294053	0.015344	-0.140394	9.809648	0.013298	-0.009072	0.458697				-0.461152	-0.796368	34.237607
35333	8294078	0.034574	-0.173926	9.844172	-0.001022	-0.000735	0.458549				-0.461027	-0.793063	34.301901
35336	8294103	0.131792	-0.054955	9.851321	0.000064	-0.012213	0.455985				-0.461923	-0.794286	34.367245
35340	8294128	0.108971	-0.100317	9.725118	0.010376	-0.010605	0.474969	0.276617	-0.255951	-0.921678	-0.461381	-0.795257	34.435300
35343	8294153	0.021792	-0.105237	9.901475	-0.009501	0.025116	0.468960				-0.463672	-0.791117	34.502447
35347	8294178	0.095841	-0.032664	9.845516	-0.001162	0.012407	0.456493				-0.459212	-0.795237	34.566687
35350	8294203	0.107558	0.043991	9.819277	-0.010388	-0.019009	0.483072				-0.461662	-0.797403	34.635906
35354	8294228	0.159094	0.106835	9.849614	-0.017285	-0.012894	0.473909	0.276635	-0.256935	-0.921701	-0.465084	-0.798701	34.703809
35357	8294253	0.199963	0.025183	9.796663	-0.010322	-0.006543	0.495730				-0.467553	-0.799061	34.774834
35361	8294278	0.011328	0.091701	9.707375	-0.003581	-0.010356	0.526907				-0.466672	-0.796930	34.846759
35364	8294303	0.120698	-0.221450	9.980714	0.001436	0.013007	0.514522				-0.467490	-0.794467	34.920446
35368	8294328	0.132901	0.019168	9.868919	0.020042	0.002380	0.504789	0.275258	-0.258383	-0.920753	-0.465621	-0.793537	34.992763
35371	8294353	0.154717	0.046616	9.627584	-0.008139	0.007711	0.526779				-0.467831	-0.791818	35.068219
35375	8294378	0.083952	-0.056437	10.045760	-0.009079	0.000872	0.489718				-0.468108	-0.794695	35.134146
35378	8294403	0.201684	0.046911	9.852838	-0.018233	0.007436	0.487275				-0.471687	-0.793057	35.203949
35382	8294428	0.383915	0.034657	9.660728	0.009044	-0.003180	0.510431	0.273366	-0.259335	-0.920785	-0.471403	-0.792911	35.277070
35385	8294453	-0.006304	-0.097108	9.703749	-0.002278	0.019728	0.522323				-0.472763	-0.789469	35.351866
35389	8294478	0.244947	-0.196066	10.163892	-0.014628	-0.005212	0.497665				-0.474436	-0.792846	35.424079
35392	8294503	0.042199	-0.013363	9.584481	-0.006136	0.005122	0.469875				-0.476245	-0.791554	35.491397
35396	8294528	0.441334	-0.149617	9.894907	-0.022197	0.018784	0.439586	0.271465	-0.258312	-0.919782	-0.480293	-0.788338	35.554345
35399	8294553	0.223107	-0.096931	9.827391	-0.014880	0.012256	0.426827				-0.483264	-0.786068	35.615476
35403	8294578	0.224125	-0.068761	9.834162	-0.029545	-0.006929	0.439709				-0.484481	-0.786860	35.692374
35406	8294603	0.209356	0.019937	9.811837	-0.017041	-0.000140	0.410299				-0.487729	-0.786381	35.751149
35410	8294628	0.235808	-0.060268	9.869878	-0.029093	0.006028	0.401972	0.270045	-0.259767	-0.920318	-0.492686	-0.785025	35.808728
35413	8294653	0.155159	-0.011544	9.848609	-0.010243	0.006206	0.404996				-0.494947	-0.783636	35.866732
35417	8294678	0.166598	0.032944	9.849901	-0.021304	0.013424	0.427833				-0.497281	-0.781800	35.931377
35420	8294703	0.212540	0.058061	9.863845	-0.006138	-0.007026	0.422136				-0.498986	-0.782280	35.991859
35424	8294728	0.140854	-0.012278	9.799121	-0.025050	-0.003770	0.421736	0.268176	-0.261209	-0.919867	-0.503399	-0.782292	36.052277
35427	8294753	0.142238	0.039039	9.837376	-0.020003	0.007418	0.432399				-0.507109	-0.780683	36.114219
35431	8294778	0.095725	0.075946	9.853398	-0.034714	-0.003803	0.444643				-0.509240	-0.782383	36.174241
35434	8294803	0.128712	0.120060	9.856219	-0.011235	0.010382	0.458962				-0.511746	-0.780310	36.239985
35438	8294828	0.049155	0.048343	9.828483	-0.020008	-0.028400	0.482266	0.266807	-0.264631	-0.919955	-0.515556	-0.783759	36.309107
35441	8294853	0.160045	-0.044157	9.852850	-0.027612	-0.023937	0.480919				-0.520455	-0.786564	36.378025
35445	8294878	0.176189	-0.018138	9.808989	-0.001203	-0.008571	0.489119				-0.518133	-0.784238	36.441441
35448	8294903	0.118496	-0.068969	9.816982	-0.007433	-0.004977	0.491673				-0.520162	-0.784312	36.511880
35452	8294928	0.101829	-0.131465	9.810207	-0.030229	0.007840	0.484912	0.264871	-0.265589	-0.921472	-0.525442	-0.782555	36.581337
35455	8294953	0.040793	-0.083002	9.915252	0.008608	-0.008844	0.481795				-0.525152	-0.783189	36.650363
35459	8294978	0.137971	0.014785	9.775692	0.007766	-0.001383	0.490640				-0.527947	-0.786398	36.720866
35462	8295003	0.092847	-0.098865	9.871765	-0.011362	-0.004613	0.480622				-0.530519	-0.786423	36.789726
35466	8295028	0.073446	-0.116758	9.792131	0.004664	-0.010182	0.482975	0.264451	-0.265572	-0.919495	-0.530801	-0.787241	36.858921
35469	8295053	0.158668	-0.058627	9.836437	0.000359	0.006197	0.501263				-0.531735	-0.785687	36.930723
35473	8295078	0.133684	0.012124	9.823687	0.007449	-0.014302	0.510471				-0.528202	-0.790753	37.001356
35476	8295103	0.122689	-0.009385	9.853851	-0.005454	-0.006194	0.485961				-0.529944	-0.790997	37.070986
35480	8295128	0.087681	-0.006121	9.827540	-0.004964	-0.004551	0.502580	0.263061	-0.265540	-0.918018	-0.531649	-0.790982	37.142983
35483	8295153	0.241464	-0.146257	9.826302	-0.004900	0.012091	0.509755				-0.533357	-0.788572	37.216002
35487	8295178	0.093470	-0.007739	9.757624	-0.008518	0.016306	0.523593				-0.532575	-0.787903	37.290063
35490	8295203	0.177297	0.036071	9.895227	-0.006099	-0.004181	0.537691				-0.534508	-0.787785	37.367096
35494	8295228	0.161045	0.150047	9.830280	0.001597	0.006416	0.545514	0.260240	-0.267953	-0.918090	-0.535352	-0.786136	37.445238
35497	8295253	0.208620	0.091287	9.778677	-0.004511	-0.004190	0.584224				-0.537146	-0.785953	37.528921
35501	8295278	0.163445	-0.020880	9.851426	0.009803	0.014608	0.590664				-0.534545	-0.782345	37.603151
35504	8295303	0.095659	-0.183959	9.819935	-0.023265	0.013670	0.582452				-0.539014	-0.779605	37.686559
35508	8295328	0.088319	-0.245775	9.842030	-0.004543	0.007491	0.578553	0.258377	-0.268900	-0.917132	-0.540791	-0.777751	37.769430
35511	8295353	0.112745	-0.139266	9.808934	-0.019549	0.007066	0.539528				-0.544639	-0.776007	37.846711
35515	8295378	0.020795	-0.207622	9.905920	-0.017920	0.014737	0.538807				-0.543938	-0.776228	37.930534
35518	8295403	0.122248	-0.215766	9.832558	-0.017716	-0.021495	0.517759				-0.547483	-0.778600	38.004734
35522	8295428	0.099647	-0.253801	9.772187	0.005914	0.028425	0.474268	0.257903	-0.269879	-0.917653	-0.547556	-0.773879	38.072639
35525	8295453	0.045121	-0.279968	9.873392	-0.002953	0.024641	0.451380				-0.548849	-0.769731	38.137261
35529	8295478	-0.008002	-0.346496	9.904792	0.008719	0.000265	0.429586				-0.548722	-0.772999	38.211722
35532	8295503	0.136923	-0.286696	9.782147	0.014691	0.006405	0.380679				-0.547353	-0.771560	38.266243
35536	8295528	0.049467	-0.358348	9.809198	-0.006665	0.027417	0.352733	0.255518	-0.270824	-0.918182	-0.548986	-0.767150	38.316741
35539	8295553	0.025331	-0.312663	9.888443	-0.011259	0.005846	0.326993				-0.551225	-0.765863	38.363578
35543	8295578	0.007247	-0.248550	9.820912	-0.012855	0.014636	0.276317				-0.550378	-0.762025	38.421231
35546	8295603	0.090075	-0.157098	9.828034	-0.017737	-0.004220	0.278705				-0.553450	-0.762246	38.461147
35550	8295628	0.069925	-0.250355	9.818597	-0.025940	-0.002231	0.265060	0.254572	-0.271300	-0.918199	-0.557671	-0.762197	38.499129
35553	8295653	0.096511	-0.153962	9.844539	-0.007130	0.000946	0.250526				-0.559169	-0.761712	38.535006
35557	8295678	0.116483	-0.209033	9.824270	-0.012943	0.006922	0.237672				-0.559954	-0.761086	38.580245
35560	8295703	0.121791	-0.141461	9.854282	-0.004253	0.011870	0.248402				-0.561035	-0.759037	38.615809
35564	8295728	0.048783	-0.052544	9.841137	-0.008841	0.011967	0.236727	0.253162	-0.271765	-0.917722	-0.562750	-0.756991	38.649702
35567	8295753	0.084312	-0.122013	9.818286	-0.003023	-0.018148	0.225744				-0.563611	-0.759272	38.682065
35571	8295778	0.099485	-0.179417	9.839151	0.001486	0.017817	0.221246				-0.562196	-0.755142	38.717573
35574	8295803	0.114445	-0.083648	9.832086	0.000794	0.007349	0.229673				-0.562515	-0.753766	38.750463
35578	8295828	0.195442	0.192669	9.864679	0.006928	-0.009827	0.222717	0.251284	-0.272715	-0.917260	-0.561943	-0.754860	38.782377
35581	8295853	0.227957	0.146991	9.829370	-0.008743	-0.017880	0.292726				-0.563749	-0.757010	38.824333
35585	8295878	0.162540	0.161970	9.813793	-0.013059	-0.006700	0.310400				-0.563011	-0.759166	38.859449
35588	8295903	0.180404	0.135799	9.820864	0.014637	-0.005633	0.344268				-0.561568	-0.759489	38.908764
35592	8295928	0.067523	-0.058833	9.879697	-0.006822	0.019448	0.364073	0.249364	-0.272189	-0.917257	-0.563234	-0.756192	38.960893
35595	8295953	0.101923	0.068308	9.776649	0.008087	-0.004606	0.350521				-0.562739	-0.756358	39.011116
35599	8295978	0.173899	0.000865	9.862392	-0.005512	0.013481	0.384767				-0.564309	-0.757367	39.058272
35602	8296003	0.121509	0.006430	9.801676	-0.005986	0.006133	0.403829				-0.565931	-0.755918	39.116113
35606	8296028	0.060746	0.069094	9.817515	0.013374	0.007284	0.433676	0.248895	-0.272674	-0.917271	-0.564834	-0.754262	39.178231
35609	8296053	0.079721	0.033212	9.878107	0.001302	0.009745	0.460367				-0.565514	-0.752215	39.244164
35613	8296078	0.119337	-0.025856	9.771594	0.005779	0.026204	0.471579				-0.562143	-0.751517	39.296264
35616	8296103	0.051262	0.036732	9.890246	-0.009853	-0.003293	0.493533				-0.564481	-0.751294	39.366959
35620	8296128	0.095997	-0.021723	9.823542	0.025870	0.015977	0.500341	0.247992	-0.273143	-0.915803	-0.561713	-0.748301	39.438614
35623	8296153	0.068491	0.008580	9.845201	0.003698	-0.012586	0.513488				-0.562145	-0.749382	39.512193
35627	8296178	0.188246	-0.017760	9.844717	0.007077	-0.032829	0.543490				-0.560133	-0.751702	39.582694
35630	8296203	0.072757	0.033962	9.753246	0.010502	0.007194	0.561878				-0.559684	-0.749885	39.663172
35634	8296228	0.035941	-0.106316	9.868652	0.001609	-0.001717	0.566256	0.246123	-0.274584	-0.915352	-0.560514	-0.749338	39.744288
35637	8296253	0.032823	-0.164209	9.850997	0.013401	0.010005	0.578563				-0.559677	-0.747094	39.827155
35641	8296278	0.001466	-0.133925	9.839702	0.002535	-0.009553	0.579216				-0.559417	-0.752483	39.901114
35644	8296303	0.110834	-0.050267	9.842930	-0.021465	0.027172	0.575076				-0.563570	-0.747784	39.983459
35648	8296328	0.109718	-0.132133	9.839067	0.008857	0.008035	0.581565	0.245206	-0.275056	-0.914379	-0.563387	-0.745814	40.066753
35651	8296353	0.078819	-0.068074	9.838649	0.001855	0.013418	0.592974				-0.564224	-0.743056	40.151681
35655	8296378	0.115351	-0.173583	9.887254	0.009508	0.005889	0.574467				-0.559990	-0.743434	40.232133
35658	8296403	0.134845	-0.075357	9.793797	0.014193	0.018334	0.549309				-0.558975	-0.740040	40.310784
35662	8296428	0.242505	-0.019947	9.802588	-0.011314	0.005089	0.551121	0.243766	-0.277007	-0.915917	-0.561615	-0.738539	40.389721
35665	8296453	0.191766	0.008780	9.803514	-0.013337	0.020467	0.548580				-0.564535	-0.734835	40.468270
35669	8296478	0.108413	-0.246791	9.899764	-0.022049	-0.000584	0.529449				-0.564314	-0.736627	40.550728
