// General information: 
//  MT Manager version: 2021.2.0 
//  XDA version: 2021.2.0 build 6101 rev 111201 built on 2021-07-13
// Device information: 
//  DeviceId: 03682939
//  ProductCode: MTi-30-2A8G4
//  Firmware Version: 1.10.0
//  Hardware Version: 3.0.0
// Device settings: 
//  Filter Profile: general(39.16)
//  Option Flags: Orientation Smoother Disabled, Position/Velocity Smoother Disabled, Continuous Zero Rotation Update Disabled, AHS Disabled, ICC Disabled
// Coordinate system: ENU
PacketCounter	SampleTimeFine	Acc_X	Acc_Y	Acc_Z	Mag_X	Mag_Y	Mag_Z	VelInc_X	VelInc_Y	VelInc_Z	OriInc_q0	OriInc_q1	OriInc_q2	OriInc_q3	Quat_q0	Quat_q1	Quat_q2	Quat_q3	Roll	Pitch	Yaw	Mat[1][1]	Mat[2][1]	Mat[3][1]	Mat[1][2]	Mat[2][2]	Mat[3][2]	Mat[1][3]	Mat[2][3]	Mat[3][3]
54740	89867209	0.288569	-0.300950	9.515519				0.000721	-0.000742	0.023789	1.000000	-0.000215	-0.000000	-0.000140	0.683303	0.009201	-0.011067	0.729993	-0.205450	-1.636443	93.787211	-0.066024	0.997409	0.028557	-0.997817	-0.065949	-0.003584	-0.001692	-0.028732	0.999586
54741	89867234	0.309151	-0.232209	9.505844	0.372895	-0.024420	-0.938459	0.000773	-0.000569	0.023765	1.000000	-0.000249	0.000013	-0.000141	0.683408	0.009023	-0.011239	0.729894	-0.233469	-1.635070	93.771061	-0.065743	0.997428	0.028533	-0.997834	-0.065653	-0.004073	-0.002189	-0.028739	0.999584
54742	89867259	0.324282	-0.160630	9.535911				0.000810	-0.000389	0.023840	1.000000	-0.000275	-0.000010	-0.000192	0.683551	0.008845	-0.011445	0.729759	-0.264397	-1.636325	93.749031	-0.065359	0.997453	0.028555	-0.997858	-0.065254	-0.004613	-0.002738	-0.028796	0.999581
54743	89867284	0.335824	-0.056735	9.545287				0.000840	-0.000129	0.023863	1.000000	-0.000275	0.000012	-0.000197	0.683632	0.008752	-0.011525	0.729683	-0.278197	-1.634894	93.736436	-0.065140	0.997468	0.028530	-0.997872	-0.065028	-0.004853	-0.002986	-0.028786	0.999581
54744	89867309	0.321694	0.055839	9.544867				0.000806	0.000154	0.023862	1.000000	-0.000309	0.000026	-0.000206	0.683786	0.008524	-0.011731	0.729539	-0.312981	-1.632024	93.712764	-0.064728	0.997496	0.028480	-0.997896	-0.064598	-0.005460	-0.003607	-0.028774	0.999579
54745	89867334	0.328562	0.141261	9.551514	0.372793	-0.020485	-0.939356	0.000822	0.000366	0.023879	1.000000	-0.000275	0.000016	-0.000225	0.683953	0.008326	-0.011919	0.729381	-0.343786	-1.630291	93.686958	-0.064279	0.997526	0.028450	-0.997923	-0.064133	-0.005998	-0.004158	-0.028777	0.999577
54746	89867359	0.376815	0.251009	9.539194				0.000944	0.000641	0.023848	1.000000	-0.000287	0.000038	-0.000217	0.684114	0.008105	-0.012100	0.729230	-0.375947	-1.626066	93.662049	-0.063845	0.997556	0.028376	-0.997948	-0.063684	-0.006559	-0.004736	-0.028737	0.999576
54747	89867384	0.368321	0.331732	9.558117				0.000924	0.000842	0.023895	1.000000	-0.000278	0.000054	-0.000199	0.684237	0.007945	-0.012280	0.729113	-0.403159	-1.626882	93.642913	-0.063512	0.997577	0.028391	-0.997967	-0.063337	-0.007034	-0.005218	-0.028780	0.999572
54748	89867409	0.367098	0.400637	9.589440				0.000921	0.001014	0.023973	1.000000	-0.000272	0.000052	-0.000165	0.684360	0.007723	-0.012441	0.728997	-0.433804	-1.621041	93.623971	-0.063183	0.997601	0.028289	-0.997985	-0.062992	-0.007568	-0.005768	-0.028710	0.999571
54749	89867434	0.370605	0.500448	9.612494	0.373205	-0.018528	-0.940297	0.000930	0.001263	0.024030	1.000000	-0.000264	0.000060	-0.000167	0.684485	0.007501	-0.012591	0.728880	-0.463480	-1.614351	93.604761	-0.062848	0.997625	0.028172	-0.998003	-0.062644	-0.008086	-0.006302	-0.028624	0.999570
54750	89867459	0.366633	0.552021	9.641104				0.000921	0.001391	0.024102	1.000000	-0.000241	0.000073	-0.000154	0.684600	0.007285	-0.012716	0.728772	-0.490619	-1.606086	93.587033	-0.062540	0.997649	0.028028	-0.998019	-0.062322	-0.008559	-0.006793	-0.028508	0.999570
54751	89867484	0.430699	0.607659	9.681115				0.001080	0.001528	0.024202	1.000000	-0.000185	0.000068	-0.000115	0.684726	0.007129	-0.012850	0.728652	-0.513735	-1.603721	93.567439	-0.062199	0.997671	0.027987	-0.998038	-0.061970	-0.008963	-0.007208	-0.028489	0.999568
54752	89867509	0.470339	0.647649	9.679905				0.001181	0.001626	0.024199	1.000000	-0.000155	0.000101	-0.000097	0.684799	0.006950	-0.012893	0.728585	-0.531199	-1.592208	93.556251	-0.062004	0.997689	0.027786	-0.998047	-0.061769	-0.009267	-0.007530	-0.028306	0.999571
54753	89867534	0.487764	0.660389	9.711520	0.372734	-0.016544	-0.938769	0.001223	0.001658	0.024278	1.000000	-0.000140	0.000073	-0.000068	0.684850	0.006802	-0.012944	0.728537	-0.546987	-1.583884	93.548435	-0.061869	0.997701	0.027640	-0.998054	-0.061626	-0.009543	-0.007818	-0.028177	0.999572
54754	89867559	0.466918	0.670159	9.720917				0.001172	0.001679	0.024302	1.000000	-0.000073	0.000094	-0.000009	0.684858	0.006684	-0.012932	0.728531	-0.555295	-1.573067	93.547315	-0.061849	0.997708	0.027452	-0.998054	-0.061604	-0.009688	-0.007975	-0.027998	0.999576
54755	89867584	0.462945	0.658144	9.764812				0.001161	0.001649	0.024412	1.000000	-0.000067	0.000082	0.000002	0.684959	0.006505	-0.013051	0.728436	-0.578983	-1.567569	93.531737	-0.061578	0.997727	0.027356	-0.998067	-0.061322	-0.010101	-0.008401	-0.027925	0.999575
54756	89867609	0.454484	0.659978	9.785285				0.001141	0.001651	0.024463	1.000000	-0.000018	0.000094	0.000042	0.684930	0.006424	-0.013000	0.728465	-0.581160	-1.556757	93.536397	-0.061660	0.997727	0.027167	-0.998061	-0.061404	-0.010139	-0.008448	-0.027740	0.999579
54757	89867634	0.445037	0.641252	9.825045	0.373695	-0.016066	-0.938258	0.001117	0.001603	0.024562	1.000000	0.000004	0.000092	0.000070	0.684880	0.006358	-0.012934	0.728513	-0.580968	-1.546101	93.544315	-0.061798	0.997724	0.026981	-0.998053	-0.061544	-0.010136	-0.008452	-0.027555	0.999585
54758	89867659	0.409017	0.582034	9.852400				0.001027	0.001453	0.024631	1.000000	0.000054	0.000103	0.000090	0.684815	0.006319	-0.012825	0.728576	-0.575020	-1.534184	93.554508	-0.061976	0.997718	0.026773	-0.998043	-0.061727	-0.010032	-0.008357	-0.027343	0.999591
54759	89867684	0.400366	0.533645	9.884018				0.001005	0.001331	0.024710	1.000000	0.000069	0.000086	0.000124	0.684792	0.006248	-0.012804	0.728599	-0.578962	-1.526595	93.558245	-0.062041	0.997718	0.026641	-0.998038	-0.061791	-0.010101	-0.008432	-0.027215	0.999594
54760	89867709	0.403493	0.496040	9.896523				0.001012	0.001237	0.024741	1.000000	0.000077	0.000082	0.000130	0.684698	0.006239	-0.012693	0.728690	-0.570541	-1.517067	93.573111	-0.062300	0.997706	0.026475	-0.998023	-0.062056	-0.009954	-0.008288	-0.027043	0.999600
54761	89867734	0.427034	0.446189	9.921492	0.374158	-0.016076	-0.938750	0.001071	0.001108	0.024804	1.000000	0.000149	0.000080	0.000148	0.684590	0.006281	-0.012530	0.728794	-0.553870	-1.507690	93.590003	-0.062594	0.997692	0.026311	-0.998007	-0.062359	-0.009663	-0.008000	-0.026864	0.999607
54762	89867759	0.448531	0.376696	9.945176				0.001124	0.000934	0.024863	1.000000	0.000167	0.000066	0.000182	0.684457	0.006345	-0.012365	0.728921	-0.535307	-1.499975	93.610827	-0.062957	0.997673	0.026177	-0.997986	-0.062732	-0.009340	-0.007676	-0.026712	0.999613
54763	89867784	0.439605	0.304312	9.971426				0.001104	0.000751	0.024929	1.000000	0.000203	0.000098	0.000194	0.684378	0.006332	-0.012197	0.728998	-0.522480	-1.485670	93.623173	-0.063173	0.997666	0.025927	-0.997975	-0.062955	-0.009116	-0.007462	-0.026450	0.999622
54764	89867809	0.466324	0.241705	9.992393				0.001170	0.000594	0.024981	1.000000	0.000217	0.000082	0.000200	0.684232	0.006419	-0.011983	0.729138	-0.498165	-1.476034	93.646034	-0.063571	0.997645	0.025759	-0.997952	-0.063366	-0.008692	-0.007039	-0.026259	0.999630
54765	89867834	0.495983	0.177416	10.005158	0.375136	-0.018064	-0.939287	0.001243	0.000433	0.025013	1.000000	0.000214	0.000058	0.000210	0.684078	0.006520	-0.011789	0.729285	-0.474225	-1.469163	93.670107	-0.063990	0.997621	0.025639	-0.997928	-0.063797	-0.008274	-0.006619	-0.026115	0.999637
54766	89867859	0.520351	0.116278	9.972591				0.001303	0.000279	0.024932	1.000000	0.000253	0.000046	0.000209	0.683924	0.006658	-0.011574	0.729431	-0.445806	-1.463749	93.694083	-0.064408	0.997596	0.025544	-0.997904	-0.064229	-0.007778	-0.006119	-0.025992	0.999643
54767	89867884	0.507870	0.048676	9.972755				0.001272	0.000109	0.024932	1.000000	0.000256	0.000040	0.000200	0.683791	0.006753	-0.011400	0.729557	-0.424098	-1.457998	93.714696	-0.064767	0.997576	0.025444	-0.997884	-0.064598	-0.007399	-0.005738	-0.025870	0.999649
54768	89867909	0.497013	-0.025583	9.964685				0.001244	-0.000076	0.024912	1.000000	0.000256	0.000038	0.000210	0.683637	0.006898	-0.011189	0.729704	-0.395338	-1.453435	93.738730	-0.065186	0.997550	0.025365	-0.997859	-0.065030	-0.006898	-0.005231	-0.025760	0.999654
54769	89867934	0.484151	-0.048568	9.937247	0.376170	-0.021525	-0.938868	0.001211	-0.000135	0.024843	1.000000	0.000279	0.000017	0.000231	0.683466	0.007073	-0.010975	0.729865	-0.364042	-1.451303	93.765235	-0.065647	0.997521	0.025327	-0.997832	-0.065506	-0.006352	-0.004677	-0.025689	0.999659
54770	89867959	0.439411	-0.122724	9.916614				0.001100	-0.000318	0.024791	1.000000	0.000228	0.000022	0.000197	0.683321	0.007211	-0.010795	0.730002	-0.338462	-1.448659	93.787821	-0.066040	0.997496	0.025281	-0.997808	-0.065911	-0.005905	-0.004224	-0.025616	0.999662
54771	89867984	0.407985	-0.158579	9.875352				0.001020	-0.000406	0.024688	1.000000	0.000210	0.000006	0.000208	0.683153	0.007373	-0.010594	0.730161	-0.309300	-1.446346	93.813912	-0.066495	0.997467	0.025241	-0.997780	-0.066379	-0.005397	-0.003707	-0.025544	0.999667
54772	89868009	0.407465	-0.201776	9.865896				0.001018	-0.000514	0.024665	1.000000	0.000201	-0.000013	0.000195	0.683009	0.007517	-0.010458	0.730296	-0.286871	-1.447740	93.836241	-0.066884	0.997441	0.025265	-0.997755	-0.066778	-0.005005	-0.003305	-0.025543	0.999668
54773	89868034	0.452032	-0.240715	9.790890	0.376201	-0.023990	-0.939421	0.001130	-0.000610	0.024477	1.000000	0.000178	-0.000004	0.000171	0.682883	0.007640	-0.010331	0.730414	-0.266937	-1.448075	93.855820	-0.067224	0.997418	0.025271	-0.997733	-0.067128	-0.004657	-0.002949	-0.025527	0.999670
54774	89868059	0.511382	-0.265917	9.741975				0.001277	-0.000671	0.024355	1.000000	0.000146	-0.000028	0.000177	0.682752	0.007759	-0.010245	0.730537	-0.250734	-1.451228	93.876191	-0.067579	0.997392	0.025326	-0.997710	-0.067489	-0.004375	-0.002654	-0.025564	0.999669
54775	89868084	0.507134	-0.332332	9.725708				0.001266	-0.000836	0.024314	1.000000	0.000107	-0.000034	0.000152	0.682620	0.007899	-0.010088	0.730662	-0.226782	-1.450618	93.896721	-0.067936	0.997368	0.025315	-0.997687	-0.067858	-0.003957	-0.002229	-0.025526	0.999672
54776	89868109	0.493092	-0.368142	9.685928				0.001232	-0.000924	0.024215	1.000000	0.000081	-0.000018	0.000133	0.682521	0.007966	-0.010041	0.730753	-0.217857	-1.452588	93.912028	-0.068203	0.997349	0.025350	-0.997669	-0.068128	-0.003801	-0.002064	-0.025550	0.999671
54777	89868134	0.518751	-0.427410	9.653360	0.375288	-0.025448	-0.938966	0.001296	-0.001070	0.024133	1.000000	0.000040	-0.000027	0.000111	0.682439	0.008012	-0.010031	0.730829	-0.213549	-1.455618	93.924773	-0.068425	0.997333	0.025403	-0.997654	-0.068352	-0.003726	-0.001980	-0.025598	0.999670
54778	89868159	0.511437	-0.441479	9.602590				0.001276	-0.001104	0.024007	1.000000	0.000015	-0.000053	0.000097	0.682368	0.008060	-0.010057	0.730895	-0.212100	-1.461598	93.935902	-0.068618	0.997317	0.025507	-0.997641	-0.068546	-0.003701	-0.001942	-0.025701	0.999668
54779	89868184	0.491715	-0.454437	9.527068				0.001228	-0.001135	0.023818	1.000000	-0.000009	-0.000034	0.000099	0.682230	0.008174	-0.009966	0.731024	-0.195898	-1.463986	93.957358	-0.068991	0.997290	0.025549	-0.997616	-0.068926	-0.003418	-0.001648	-0.025723	0.999668
54780	89868209	0.475048	-0.473942	9.447458				0.001186	-0.001184	0.023619	1.000000	-0.000020	-0.000027	0.000056	0.682189	0.008179	-0.009999	0.731062	-0.198352	-1.467028	93.963801	-0.069103	0.997281	0.025602	-0.997608	-0.069037	-0.003461	-0.001684	-0.025780	0.999666
54781	89868234	0.432197	-0.486578	9.410189	0.375320	-0.026430	-0.938494	0.001080	-0.001217	0.023525	1.000000	0.000017	-0.000021	0.000062	0.682143	0.008206	-0.010001	0.731105	-0.196546	-1.469391	93.970941	-0.069228	0.997271	0.025643	-0.997600	-0.069162	-0.003429	-0.001646	-0.025819	0.999665
54782	89868259	0.382256	-0.511880	9.403080				0.000956	-0.001280	0.023508	1.000000	0.000008	0.000004	0.000036	0.682117	0.008208	-0.009993	0.731129	-0.195726	-1.468910	93.975047	-0.069299	0.997267	0.025635	-0.997595	-0.069234	-0.003415	-0.001631	-0.025809	0.999666
54783	89868284	0.342378	-0.487150	9.391752				0.000857	-0.001217	0.023479	1.000000	-0.000017	0.000020	0.000035	0.682040	0.008252	-0.010015	0.731200	-0.194341	-1.474328	93.986999	-0.069507	0.997250	0.025729	-0.997580	-0.069443	-0.003391	-0.001595	-0.025902	0.999663
54784	89868309	0.340911	-0.476401	9.360179				0.000855	-0.001191	0.023400	1.000000	-0.000005	0.000054	0.000007	0.682035	0.008209	-0.009982	0.731205	-0.194907	-1.468179	93.987797	-0.069521	0.997251	0.025622	-0.997579	-0.069457	-0.003401	-0.001612	-0.025796	0.999666
54785	89868334	0.313380	-0.451028	9.364022	0.374857	-0.026420	-0.938001	0.000786	-0.001129	0.023410	1.000000	0.000022	0.000057	-0.000037	0.682063	0.008183	-0.009927	0.731180	-0.192273	-1.461661	93.983519	-0.069447	0.997259	0.025508	-0.997584	-0.069384	-0.003355	-0.001576	-0.025679	0.999669
54786	89868359	0.306993	-0.402925	9.354235				0.000771	-0.001007	0.023385	1.000000	-0.000012	0.000085	-0.000060	0.682108	0.008113	-0.009878	0.731140	-0.193512	-1.451927	93.976607	-0.069327	0.997272	0.025338	-0.997593	-0.069263	-0.003376	-0.001612	-0.025511	0.999673
54787	89868384	0.333352	-0.343255	9.325427				0.000838	-0.000859	0.023313	1.000000	0.000010	0.000104	-0.000081	0.682091	0.008141	-0.009829	0.731156	-0.187242	-1.450556	93.979194	-0.069372	0.997270	0.025314	-0.997590	-0.069311	-0.003267	-0.001503	-0.025480	0.999674
54788	89868409	0.398598	-0.288391	9.333939				0.001001	-0.000721	0.023335	1.000000	-0.000007	0.000109	-0.000075	0.682147	0.008057	-0.009759	0.731106	-0.187867	-1.438045	93.970528	-0.069222	0.997286	0.025096	-0.997600	-0.069161	-0.003278	-0.001533	-0.025263	0.999680
54789	89868434	0.412674	-0.225022	9.336565	0.375320	-0.026430	-0.938494	0.001036	-0.000561	0.023341	1.000000	-0.000028	0.000106	-0.000102	0.682223	0.007962	-0.009707	0.731037	-0.190781	-1.425993	93.958796	-0.069018	0.997305	0.024886	-0.997614	-0.068956	-0.003329	-0.001604	-0.025056	0.999685
54790	89868459	0.412413	-0.172250	9.347411				0.001038	-0.000430	0.023368	1.000000	-0.000010	0.000159	-0.000095	0.682293	0.007839	-0.009605	0.730973	-0.191712	-1.407763	93.947896	-0.068828	0.997326	0.024568	-0.997627	-0.068767	-0.003345	-0.001647	-0.024740	0.999692
54791	89868484	0.404134	-0.110711	9.386932				0.001019	-0.000274	0.023467	1.000000	-0.000057	0.000184	-0.000087	0.682327	0.007744	-0.009563	0.730943	-0.195572	-1.396524	93.942729	-0.068739	0.997337	0.024372	-0.997633	-0.068676	-0.003412	-0.001730	-0.024548	0.999697
54792	89868509	0.396235	-0.083485	9.456744				0.001000	-0.000207	0.023641	1.000000	-0.000048	0.000193	-0.000094	0.682398	0.007571	-0.009465	0.730880	-0.200764	-1.374407	93.931913	-0.068551	0.997359	0.023986	-0.997646	-0.068486	-0.003503	-0.001851	-0.024169	0.999706
54793	89868534	0.399748	-0.084549	9.508901	0.376750	-0.025468	-0.937969	0.001009	-0.000209	0.023772	1.000000	-0.000047	0.000210	-0.000121	0.682488	0.007387	-0.009355	0.730799	-0.205794	-1.350363	93.918012	-0.068310	0.997385	0.023566	-0.997662	-0.068244	-0.003591	-0.001973	-0.023756	0.999716
54794	89868559	0.400077	-0.052206	9.559557				0.001011	-0.000128	0.023898	1.000000	-0.000066	0.000220	-0.000133	0.682588	0.007182	-0.009252	0.730709	-0.212997	-1.325178	93.902647	-0.068043	0.997414	0.023127	-0.997680	-0.067975	-0.003716	-0.002135	-0.023326	0.999725
54795	89868584	0.354495	-0.035053	9.626386				0.000897	-0.000085	0.024066	1.000000	-0.000065	0.000220	-0.000122	0.682645	0.007085	-0.009140	0.730659	-0.211088	-1.308243	93.893869	-0.067891	0.997431	0.022831	-0.997690	-0.067824	-0.003683	-0.002125	-0.023028	0.999733
54796	89868609	0.321844	0.011785	9.702825				0.000816	0.000032	0.024257	1.000000	-0.000052	0.000238	-0.000123	0.682738	0.006876	-0.009015	0.730576	-0.216759	-1.281053	93.879642	-0.067644	0.997459	0.022357	-0.997707	-0.067576	-0.003782	-0.002262	-0.022561	0.999743
54797	89868634	0.278959	0.051669	9.754496	0.378642	-0.024516	-0.937936	0.000708	0.000132	0.024386	1.000000	-0.000056	0.000213	-0.000103	0.682815	0.006684	-0.008910	0.730506	-0.222904	-1.256747	93.867703	-0.067436	0.997482	0.021933	-0.997720	-0.067367	-0.003889	-0.002402	-0.022145	0.999752
54798	89868659	0.287663	0.104321	9.765366				0.000729	0.000264	0.024413	1.000000	-0.000065	0.000200	-0.000124	0.682908	0.006495	-0.008819	0.730422	-0.230005	-1.233867	93.853377	-0.067188	0.997508	0.021533	-0.997737	-0.067116	-0.004013	-0.002558	-0.021754	0.999760
54799	89868684	0.278618	0.126217	9.828324				0.000706	0.000318	0.024571	1.000000	-0.000052	0.000192	-0.000120	0.682999	0.006329	-0.008702	0.730340	-0.232966	-1.210858	93.839315	-0.066943	0.997533	0.021132	-0.997753	-0.066872	-0.004065	-0.002642	-0.021357	0.999768
54800	89868709	0.319467	0.176798	9.851785				0.000809	0.000444	0.024629	1.000000	-0.000052	0.000207	-0.000134	0.683099	0.006143	-0.008598	0.730249	-0.238631	-1.187163	93.823844	-0.066675	0.997559	0.020718	-0.997771	-0.066602	-0.004164	-0.002774	-0.020950	0.999776
54801	89868734	0.298530	0.208671	9.878965	0.380075	-0.024541	-0.937929	0.000756	0.000524	0.024697	1.000000	-0.000060	0.000202	-0.000105	0.683178	0.005956	-0.008503	0.730178	-0.245276	-1.164099	93.811772	-0.066465	0.997582	0.020316	-0.997784	-0.066391	-0.004280	-0.002921	-0.020555	0.999784
54802	89868759	0.300097	0.269269	9.882908				0.000761	0.000677	0.024707	1.000000	-0.000073	0.000211	-0.000109	0.683260	0.005753	-0.008412	0.730104	-0.253395	-1.140028	93.799149	-0.066245	0.997604	0.019896	-0.997798	-0.066170	-0.004422	-0.003095	-0.020145	0.999792
54803	89868784	0.278467	0.298130	9.900496				0.000704	0.000751	0.024751	1.000000	-0.000118	0.000147	-0.000113	0.683349	0.005604	-0.008388	0.730022	-0.262923	-1.125714	93.785316	-0.066005	0.997626	0.019646	-0.997814	-0.065927	-0.004588	-0.003282	-0.019906	0.999796
54804	89868809	0.260300	0.291248	9.920967				0.000660	0.000734	0.024802	1.000000	-0.000116	0.000193	-0.000079	0.683409	0.005385	-0.008340	0.729969	-0.275987	-1.103652	93.776217	-0.065847	0.997644	0.019261	-0.997823	-0.065766	-0.004816	-0.003538	-0.019536	0.999803
54805	89868834	0.279012	0.332793	9.920977	0.380586	-0.025532	-0.937455	0.000705	0.000839	0.024802	1.000000	-0.000153	0.000156	-0.000087	0.683474	0.005168	-0.008345	0.729908	-0.293310	-1.085877	93.766136	-0.065672	0.997661	0.018951	-0.997834	-0.065586	-0.005118	-0.003863	-0.019246	0.999807
54806	89868859	0.248500	0.351145	9.949515				0.000630	0.000887	0.024873	1.000000	-0.000184	0.000166	-0.000073	0.683530	0.004921	-0.008366	0.729858	-0.314288	-1.066869	93.757714	-0.065526	0.997677	0.018619	-0.997842	-0.065434	-0.005484	-0.004253	-0.018938	0.999811
54807	89868884	0.219846	0.346676	9.982265				0.000558	0.000876	0.024955	1.000000	-0.000182	0.000165	-0.000082	0.683613	0.004746	-0.008263	0.729783	-0.319291	-1.044286	93.744851	-0.065303	0.997699	0.018225	-0.997856	-0.065211	-0.005572	-0.004370	-0.018550	0.999818
54808	89868909	0.224945	0.337362	10.012499				0.000572	0.000853	0.025031	1.000000	-0.000197	0.000189	-0.000042	0.683646	0.004474	-0.008278	0.729753	-0.341757	-1.022698	93.739909	-0.065217	0.997712	0.017848	-0.997860	-0.065120	-0.005964	-0.004788	-0.018199	0.999823
54809	89868934	0.237105	0.350176	10.008412	0.380578	-0.023558	-0.936419	0.000602	0.000883	0.025021	1.000000	-0.000157	0.000183	-0.000055	0.683688	0.004234	-0.008267	0.729715	-0.359579	-1.001787	93.733508	-0.065106	0.997725	0.017484	-0.997865	-0.065005	-0.006275	-0.005124	-0.017855	0.999827
54810	89868959	0.252476	0.324995	10.014066				0.000639	0.000819	0.025035	1.000000	-0.000138	0.000158	-0.000022	0.683706	0.004025	-0.008259	0.729700	-0.375313	-0.983690	93.730887	-0.065061	0.997733	0.017168	-0.997866	-0.064956	-0.006549	-0.005419	-0.017557	0.999831
54811	89868984	0.247299	0.300017	10.037419				0.000627	0.000754	0.025093	1.000000	-0.000077	0.000167	0.000005	0.683735	0.003838	-0.008219	0.729674	-0.386587	-0.964892	93.726411	-0.064983	0.997744	0.016840	-0.997870	-0.064877	-0.006746	-0.005638	-0.017242	0.999835
54812	89869009	0.275395	0.240397	10.048756				0.000696	0.000603	0.025122	1.000000	-0.000037	0.000146	0.000005	0.683733	0.003706	-0.008147	0.729677	-0.390866	-0.948210	93.726872	-0.064991	0.997749	0.016549	-0.997869	-0.064886	-0.006821	-0.005732	-0.016957	0.999840
54813	89869034	0.289046	0.235796	10.040627	0.383448	-0.024594	-0.936923	0.000730	0.000588	0.025101	1.000000	0.000024	0.000152	0.000025	0.683716	0.003611	-0.008025	0.729695	-0.388139	-0.930771	93.729620	-0.065039	0.997750	0.016244	-0.997866	-0.064937	-0.006773	-0.005703	-0.016650	0.999845
54814	89869059	0.265173	0.229043	10.019896				0.000670	0.000569	0.025050	1.000000	0.000068	0.000135	0.000045	0.683684	0.003559	-0.007884	0.729727	-0.380413	-0.915308	93.734637	-0.065127	0.997749	0.015974	-0.997861	-0.065028	-0.006639	-0.005585	-0.016373	0.999850
54815	89869084	0.283151	0.184341	10.031136				0.000716	0.000454	0.025078	1.000000	0.000134	0.000154	0.000041	0.683699	0.003406	-0.007804	0.729715	-0.385810	-0.896271	93.732417	-0.065089	0.997757	0.015642	-0.997863	-0.064990	-0.006733	-0.005701	-0.016047	0.999855
54816	89869109	0.280002	0.122669	10.029944				0.000708	0.000298	0.025075	1.000000	0.000183	0.000168	0.000011	0.683692	0.003408	-0.007556	0.729724	-0.364838	-0.876964	93.733510	-0.065108	0.997761	0.015305	-0.997864	-0.065017	-0.006367	-0.005357	-0.015687	0.999863
54817	89869134	0.276360	0.068014	10.061665	0.384017	-0.025576	-0.934470	0.000700	0.000159	0.025154	1.000000	0.000226	0.000173	0.000034	0.683667	0.003436	-0.007272	0.729749	-0.338997	-0.857075	93.737269	-0.065174	0.997762	0.014958	-0.997862	-0.065092	-0.005916	-0.004929	-0.015312	0.999871
54818	89869159	0.289566	0.051204	10.059037				0.000730	0.000114	0.025147	1.000000	0.000274	0.000123	0.000046	0.683634	0.003533	-0.006989	0.729783	-0.307700	-0.843006	93.742429	-0.065264	0.997759	0.014713	-0.997858	-0.065191	-0.005370	-0.004399	-0.015032	0.999877
54819	89869184	0.274884	0.011063	10.089272				0.000693	0.000012	0.025223	1.000000	0.000315	0.000117	0.000024	0.683612	0.003538	-0.006811	0.729805	-0.292437	-0.829476	93.745883	-0.065325	0.997759	0.014477	-0.997856	-0.065257	-0.005103	-0.004147	-0.014779	0.999882
54820	89869209	0.231568	-0.004547	10.089019				0.000586	-0.000027	0.025222	1.000000	0.000315	0.000150	0.000004	0.683609	0.003645	-0.006479	0.729811	-0.256342	-0.812333	93.746285	-0.065332	0.997763	0.014177	-0.997857	-0.065275	-0.004474	-0.003538	-0.014439	0.999890
54821	89869234	0.218110	-0.006063	10.105383	0.384971	-0.027074	-0.935490	0.000552	-0.000031	0.025263	1.000000	0.000320	0.000135	-0.000008	0.683614	0.003765	-0.006152	0.729808	-0.219620	-0.796848	93.745335	-0.065316	0.997768	0.013907	-0.997860	-0.065268	-0.003833	-0.002916	-0.014128	0.999896
54822	89869259	0.200159	0.021581	10.103796				0.000506	0.000040	0.025259	1.000000	0.000282	0.000111	-0.000003	0.683616	0.003877	-0.005871	0.729808	-0.187252	-0.784142	93.744936	-0.065309	0.997771	0.013685	-0.997862	-0.065270	-0.003268	-0.002367	-0.013870	0.999901
54823	89869284	0.231653	0.030565	10.069679				0.000584	0.000065	0.025174	1.000000	0.000222	0.000092	-0.000045	0.683607	0.003972	-0.005634	0.729818	-0.160052	-0.773550	93.746272	-0.065332	0.997772	0.013501	-0.997862	-0.065300	-0.002793	-0.001905	-0.013654	0.999905
54824	89869309	0.287428	0.028746	10.074186				0.000723	0.000062	0.025185	1.000000	0.000200	0.000083	-0.000031	0.683629	0.004048	-0.005431	0.729798	-0.137129	-0.763991	93.742694	-0.065270	0.997778	0.013334	-0.997866	-0.065244	-0.002393	-0.001518	-0.013462	0.999908
54825	89869334	0.271499	0.077647	10.075289	0.384975	-0.028061	-0.936008	0.000684	0.000187	0.025188	1.000000	0.000136	0.000095	-0.000046	0.683663	0.004071	-0.005266	0.729768	-0.121472	-0.753061	93.737384	-0.065177	0.997787	0.013143	-0.997873	-0.065155	-0.002120	-0.001259	-0.013253	0.999911
54826	89869359	0.316640	0.071035	10.085212				0.000795	0.000174	0.025213	1.000000	0.000073	0.000061	-0.000038	0.683690	0.004077	-0.005171	0.729742	-0.113027	-0.746105	93.733049	-0.065102	0.997793	0.013022	-0.997878	-0.065082	-0.001973	-0.001121	-0.013122	0.999913
54827	89869384	0.305588	0.080031	10.096080				0.000767	0.000199	0.025240	1.000000	0.000024	0.000066	-0.000067	0.683707	0.004177	-0.004911	0.729728	-0.083419	-0.734102	93.730218	-0.065053	0.997800	0.012812	-0.997882	-0.065040	-0.001456	-0.000619	-0.012880	0.999917
54828	89869409	0.321535	0.115815	10.052182				0.000807	0.000291	0.025130	1.000000	-0.000028	0.000057	-0.000089	0.683773	0.004117	-0.004892	0.729667	-0.086516	-0.727561	93.720049	-0.064876	0.997813	0.012698	-0.997893	-0.064862	-0.001510	-0.000683	-0.012769	0.999918
54829	89869434	0.342277	0.133274	10.034429	0.384975	-0.028061	-0.936008	0.000857	0.000336	0.025086	1.000000	-0.000063	0.000016	-0.000052	0.683810	0.004062	-0.004927	0.729632	-0.093630	-0.725691	93.714145	-0.064774	0.997820	0.012665	-0.997900	-0.064758	-0.001634	-0.000810	-0.012745	0.999919
54830	89869459	0.343579	0.134155	10.016611				0.000861	0.000340	0.025041	1.000000	-0.000098	0.000036	-0.000058	0.683853	0.003969	-0.004974	0.729592	-0.104802	-0.721632	93.707533	-0.064659	0.997828	0.012595	-0.997907	-0.064641	-0.001829	-0.001011	-0.012686	0.999919
54831	89869484	0.372916	0.128744	9.960585				0.000932	0.000329	0.024901	1.000000	-0.000137	-0.000008	-0.000046	0.683866	0.004006	-0.004926	0.729580	-0.097977	-0.720956	93.705441	-0.064622	0.997830	0.012583	-0.997909	-0.064605	-0.001710	-0.000893	-0.012667	0.999919
54832	89869509	0.357713	0.145992	9.934380				0.000895	0.000371	0.024836	1.000000	-0.000126	0.000019	-0.000042	0.683897	0.003906	-0.005005	0.729551	-0.112309	-0.718814	93.700642	-0.064538	0.997836	0.012545	-0.997914	-0.064519	-0.001960	-0.001146	-0.012646	0.999919
54833	89869534	0.339207	0.125313	9.900030	0.385926	-0.027091	-0.935485	0.000850	0.000319	0.024750	1.000000	-0.000123	0.000030	-0.000048	0.683933	0.003800	-0.005074	0.729517	-0.126366	-0.715361	93.695088	-0.064441	0.997843	0.012485	-0.997920	-0.064419	-0.002205	-0.001396	-0.012601	0.999919
54834	89869559	0.325345	0.125088	9.847793				0.000812	0.000318	0.024619	1.000000	-0.000109	-0.000020	-0.000029	0.683955	0.003740	-0.005167	0.729496	-0.138807	-0.717662	93.691752	-0.064383	0.997846	0.012525	-0.997924	-0.064358	-0.002422	-0.001611	-0.012655	0.999918
54835	89869584	0.313209	0.131649	9.795569				0.000783	0.000333	0.024489	1.000000	-0.000083	0.000001	-0.000026	0.683989	0.003675	-0.005171	0.729464	-0.144196	-0.712460	93.686362	-0.064290	0.997854	0.012434	-0.997930	-0.064263	-0.002517	-0.001712	-0.012570	0.999920
54836	89869609	0.328787	0.117158	9.744975				0.000823	0.000295	0.024362	1.000000	-0.000050	0.000013	-0.000015	0.684001	0.003631	-0.005198	0.729454	-0.149884	-0.710955	93.684609	-0.064259	0.997856	0.012408	-0.997932	-0.064232	-0.002616	-0.001813	-0.012551	0.999920
54837	89869634	0.348756	0.097402	9.687553	0.387855	-0.028109	-0.935499	0.000871	0.000245	0.024219	1.000000	-0.000023	-0.000017	-0.000034	0.684026	0.003628	-0.005226	0.729430	-0.152435	-0.712858	93.680662	-0.064191	0.997860	0.012441	-0.997936	-0.064162	-0.002660	-0.001856	-0.012586	0.999919
54838	89869659	0.366708	0.079121	9.660314				0.000917	0.000197	0.024151	1.000000	0.000025	0.000004	-0.000005	0.684030	0.003642	-0.005205	0.729426	-0.149613	-0.712452	93.680050	-0.064180	0.997861	0.012434	-0.997937	-0.064152	-0.002611	-0.001808	-0.012576	0.999919
54839	89869684	0.326242	0.088074	9.624343				0.000815	0.000217	0.024061	1.000000	0.000063	-0.000003	-0.000010	0.684049	0.003639	-0.005265	0.729408	-0.154829	-0.716835	93.677070	-0.064128	0.997863	0.012511	-0.997940	-0.064099	-0.002702	-0.001894	-0.012658	0.999918
54840	89869709	0.290341	0.059241	9.558352				0.000727	0.000144	0.023896	1.000000	0.000095	0.000032	0.000009	0.684042	0.003681	-0.005174	0.729415	-0.143911	-0.713219	93.678099	-0.064146	0.997863	0.012448	-0.997939	-0.064119	-0.002512	-0.001708	-0.012583	0.999919
54841	89869734	0.254046	0.044143	9.554036	0.386871	-0.028097	-0.936493	0.000636	0.000104	0.023885	1.000000	0.000137	0.000029	0.000015	0.684031	0.003754	-0.005054	0.729426	-0.128232	-0.709914	93.679758	-0.064175	0.997862	0.012390	-0.997938	-0.064152	-0.002238	-0.001438	-0.012508	0.999921
54842	89869759	0.235618	0.022428	9.537516				0.000590	0.000048	0.023844	1.000000	0.000163	0.000024	-0.000001	0.684031	0.003848	-0.004918	0.729426	-0.109511	-0.707164	93.679702	-0.064174	0.997862	0.012342	-0.997938	-0.064155	-0.001911	-0.001115	-0.012439	0.999922
54843	89869784	0.175790	0.022502	9.512440				0.000442	0.000049	0.023781	1.000000	0.000145	0.000058	-0.000007	0.684034	0.003849	-0.004878	0.729424	-0.106000	-0.704117	93.679275	-0.064167	0.997864	0.012289	-0.997939	-0.064149	-0.001850	-0.001058	-0.012382	0.999923
54844	89869809	0.178721	0.031728	9.472644				0.000450	0.000073	0.023682	1.000000	0.000136	0.000069	-0.000006	0.684038	0.003892	-0.004732	0.729421	-0.090424	-0.696242	93.678613	-0.064155	0.997866	0.012151	-0.997940	-0.064141	-0.001578	-0.000795	-0.012228	0.999925
54845	89869834	0.158196	0.032534	9.473877	0.385494	-0.029544	-0.935545	0.000399	0.000076	0.023685	1.000000	0.000112	0.000079	-0.000057	0.684079	0.003911	-0.004596	0.729383	-0.077539	-0.687186	93.672044	-0.064041	0.997875	0.011993	-0.997947	-0.064029	-0.001353	-0.000582	-0.012055	0.999927
54846	89869859	0.158956	0.080701	9.454523				0.000402	0.000197	0.023636	1.000000	0.000091	0.000095	-0.000062	0.684125	0.003905	-0.004464	0.729341	-0.066979	-0.676287	93.664915	-0.063917	0.997885	0.011803	-0.997955	-0.063907	-0.001169	-0.000412	-0.011854	0.999930
54847	89869884	0.139681	0.072987	9.436596				0.000355	0.000181	0.023591	1.000000	0.000033	0.000130	-0.000041	0.684104	0.003958	-0.004337	0.729361	-0.052174	-0.670806	93.668159	-0.063973	0.997883	0.011708	-0.997952	-0.063967	-0.000911	-0.000160	-0.011742	0.999931
54848	89869909	0.100168	0.065377	9.488470				0.000257	0.000164	0.023721	1.000000	-0.000007	0.000142	-0.000044	0.684136	0.003851	-0.004245	0.729332	-0.052871	-0.654592	93.663111	-0.063886	0.997892	0.011425	-0.997957	-0.063879	-0.000923	-0.000191	-0.011460	0.999934
54849	89869934	0.100554	0.090616	9.528159	0.386477	-0.031038	-0.935575	0.000259	0.000229	0.023820	1.000000	-0.000062	0.000151	-0.000063	0.684183	0.003698	-0.004187	0.729289	-0.059935	-0.637293	93.655861	-0.063759	0.997903	0.011123	-0.997965	-0.063752	-0.001046	-0.000335	-0.011167	0.999937
54850	89869959	0.065692	0.129040	9.571695				0.000172	0.000328	0.023929	1.000000	-0.000104	0.000161	-0.000078	0.684241	0.003510	-0.004152	0.729235	-0.071768	-0.618883	93.646872	-0.063603	0.997916	0.010801	-0.997975	-0.063593	-0.001253	-0.000563	-0.010859	0.999941
54851	89869984	0.076344	0.177434	9.623758				0.000199	0.000450	0.024059	1.000000	-0.000143	0.000171	-0.000063	0.684270	0.003494	-0.004031	0.729209	-0.062813	-0.608076	93.642390	-0.063525	0.997924	0.010613	-0.997980	-0.063517	-0.001096	-0.000420	-0.010661	0.999943
54852	89870009	0.060537	0.184044	9.677126				0.000162	0.000468	0.024193	1.000000	-0.000159	0.000220	-0.000074	0.684325	0.003225	-0.003996	0.729159	-0.080938	-0.582853	93.633935	-0.063378	0.997937	0.010173	-0.997989	-0.063367	-0.001413	-0.000765	-0.010242	0.999947
54853	89870034	0.099798	0.240133	9.741697	0.387836	-0.028606	-0.936500	0.000260	0.000608	0.024354	1.000000	-0.000168	0.000211	-0.000066	0.684374	0.002957	-0.003973	0.729114	-0.100062	-0.558701	93.626383	-0.063247	0.997950	0.009751	-0.997997	-0.063233	-0.001746	-0.001126	-0.009842	0.999951
54854	89870059	0.124320	0.287598	9.785637				0.000322	0.000729	0.024464	1.000000	-0.000196	0.000223	-0.000058	0.684417	0.002661	-0.003964	0.729074	-0.122419	-0.533203	93.619738	-0.063131	0.997961	0.009306	-0.998004	-0.063114	-0.002137	-0.001545	-0.009422	0.999954
54855	89870084	0.126513	0.312023	9.814372				0.000327	0.000789	0.024535	1.000000	-0.000189	0.000225	-0.000069	0.684478	0.002502	-0.003912	0.729019	-0.130627	-0.515875	93.610265	-0.062967	0.997975	0.009004	-0.998014	-0.062949	-0.002280	-0.001708	-0.009129	0.999957
54856	89870109	0.106123	0.388721	9.864735				0.000275	0.000980	0.024661	1.000000	-0.000175	0.000194	-0.000057	0.684521	0.002240	-0.003907	0.728979	-0.150668	-0.493631	93.603697	-0.062852	0.997985	0.008615	-0.998020	-0.062832	-0.002630	-0.002083	-0.008764	0.999959
54857	89870134	0.074897	0.433034	9.917875	0.389346	-0.028124	-0.933512	0.000198	0.001091	0.024794	1.000000	-0.000172	0.000214	-0.000081	0.684581	0.001967	-0.003885	0.728924	-0.170250	-0.469085	93.594390	-0.062690	0.997999	0.008187	-0.998030	-0.062668	-0.002971	-0.002452	-0.008357	0.999962
54858	89870159	0.057501	0.477191	9.982090				0.000154	0.001203	0.024955	1.000000	-0.000192	0.000202	-0.000089	0.684647	0.001689	-0.003886	0.728863	-0.192114	-0.445930	93.584150	-0.062512	0.998013	0.007783	-0.998040	-0.062488	-0.003353	-0.002860	-0.007977	0.999964
54859	89870184	0.080305	0.532039	10.047915				0.000212	0.001338	0.025119	1.000000	-0.000155	0.000213	-0.000061	0.684663	0.001435	-0.003832	0.728848	-0.207493	-0.420470	93.581576	-0.062468	0.998020	0.007339	-0.998042	-0.062442	-0.003621	-0.003156	-0.007550	0.999966
54860	89870209	0.095881	0.573054	10.065723				0.000251	0.001440	0.025164	1.000000	-0.000141	0.000215	-0.000054	0.684704	0.001182	-0.003787	0.728810	-0.223575	-0.395816	93.575269	-0.062358	0.998030	0.006908	-0.998048	-0.062332	-0.003902	-0.003464	-0.007138	0.999968
54861	89870234	0.126256	0.590311	10.133072	0.391773	-0.028653	-0.932523	0.000326	0.001481	0.025332	1.000000	-0.000113	0.000211	-0.000020	0.684719	0.000951	-0.003725	0.728797	-0.236470	-0.371630	93.572917	-0.062317	0.998035	0.006486	-0.998049	-0.062291	-0.004127	-0.003715	-0.006731	0.999970
54862	89870259	0.135322	0.608408	10.194787				0.000347	0.001526	0.025487	1.000000	-0.000091	0.000170	0.000006	0.684715	0.000764	-0.003675	0.728800	-0.246951	-0.352132	93.573546	-0.062328	0.998036	0.006146	-0.998047	-0.062302	-0.004310	-0.003919	-0.006402	0.999971
54863	89870284	0.165857	0.637701	10.237402				0.000422	0.001597	0.025593	1.000000	-0.000055	0.000150	0.000015	0.684769	0.000551	-0.003653	0.728751	-0.261817	-0.332592	93.565153	-0.062182	0.998048	0.005805	-0.998056	-0.062156	-0.004569	-0.004200	-0.006078	0.999973
54864	89870309	0.178339	0.632662	10.237491				0.000453	0.001584	0.025593	1.000000	-0.000041	0.000138	0.000034	0.684745	0.000421	-0.003588	0.728774	-0.266571	-0.316733	93.568977	-0.062249	0.998045	0.005528	-0.998051	-0.062223	-0.004652	-0.004299	-0.005807	0.999973
54865	89870334	0.148648	0.609647	10.270264	0.393112	-0.026718	-0.934449	0.000378	0.001525	0.025676	1.000000	-0.000021	0.000127	0.000068	0.684696	0.000315	-0.003516	0.728820	-0.268966	-0.302172	93.576657	-0.062383	0.998038	0.005274	-0.998042	-0.062358	-0.004694	-0.004356	-0.005556	0.999975
54866	89870359	0.153050	0.592618	10.284039				0.000388	0.001481	0.025710	1.000000	0.000014	0.000119	0.000097	0.684626	0.000237	-0.003424	0.728887	-0.267400	-0.288448	93.587706	-0.062575	0.998027	0.005034	-0.998030	-0.062552	-0.004667	-0.004343	-0.005316	0.999976
54867	89870384	0.152864	0.536428	10.281458				0.000387	0.001338	0.025704	1.000000	0.000053	0.000098	0.000128	0.684593	0.000118	-0.003351	0.728918	-0.270657	-0.272676	93.592850	-0.062665	0.998023	0.004759	-0.998025	-0.062643	-0.004724	-0.004416	-0.005046	0.999977
54868	89870409	0.151486	0.489359	10.250022				0.000381	0.001220	0.025625	1.000000	0.000073	0.000051	0.000133	0.684496	0.000130	-0.003263	0.729009	-0.262378	-0.266818	93.608065	-0.062930	0.998007	0.004657	-0.998008	-0.062909	-0.004579	-0.004277	-0.004936	0.999978
54869	89870434	0.199427	0.391822	10.227357	0.393092	-0.027215	-0.935450	0.000501	0.000975	0.025569	1.000000	0.000084	0.000046	0.000165	0.684376	0.000154	-0.003170	0.729122	-0.252784	-0.261480	93.626940	-0.063259	0.997986	0.004564	-0.997988	-0.063239	-0.004412	-0.004114	-0.004834	0.999979
54870	89870459	0.239929	0.317376	10.205929				0.000603	0.000787	0.025515	1.000000	0.000123	0.000061	0.000201	0.684229	0.000193	-0.003039	0.729260	-0.238767	-0.254423	93.649951	-0.063659	0.997961	0.004441	-0.997964	-0.063641	-0.004167	-0.003876	-0.004697	0.999981
54871	89870484	0.194218	0.219704	10.205932				0.000488	0.000543	0.025515	1.000000	0.000135	0.000048	0.000208	0.684148	0.000158	-0.002937	0.729337	-0.233049	-0.243435	93.662695	-0.063882	0.997948	0.004249	-0.997950	-0.063864	-0.004067	-0.003788	-0.004500	0.999982
54872	89870509	0.148428	0.136798	10.194913				0.000373	0.000335	0.025487	1.000000	0.000134	0.000034	0.000227	0.683983	0.000224	-0.002816	0.729492	-0.217774	-0.239441	93.688676	-0.064334	0.997919	0.004179	-0.997922	-0.064318	-0.003801	-0.003524	-0.004415	0.999984
54873	89870534	0.109755	0.051197	10.137323	0.391276	-0.029142	-0.933526	0.000275	0.000120	0.025343	1.000000	0.000151	0.000007	0.000221	0.683822	0.000322	-0.002701	0.729644	-0.200543	-0.238580	93.714004	-0.064775	0.997891	0.004164	-0.997894	-0.064761	-0.003500	-0.003223	-0.004382	0.999985
54874	89870559	0.088521	-0.049913	10.105975				0.000222	-0.000135	0.025265	1.000000	0.000195	0.000004	0.000185	0.683687	0.000452	-0.002556	0.729771	-0.178311	-0.238054	93.735193	-0.065144	0.997867	0.004155	-0.997871	-0.065131	-0.003112	-0.002835	-0.004349	0.999986
54875	89870584	0.091911	-0.132567	10.041810				0.000229	-0.000340	0.025104	1.000000	0.000172	-0.000015	0.000210	0.683516	0.000515	-0.002444	0.729931	-0.164098	-0.234523	93.761968	-0.065611	0.997837	0.004093	-0.997842	-0.065599	-0.002864	-0.002589	-0.004272	0.999987
54876	89870609	0.115441	-0.208968	9.981880				0.000287	-0.000532	0.024955	1.000000	0.000195	-0.000028	0.000201	0.683369	0.000668	-0.002321	0.730068	-0.141829	-0.237645	93.784965	-0.066011	0.997810	0.004148	-0.997816	-0.066001	-0.002475	-0.002196	-0.004302	0.999988
54877	89870634	0.051782	-0.280457	9.950134	0.391810	-0.030623	-0.932569	0.000128	-0.000710	0.024875	1.000000	0.000169	-0.000026	0.000202	0.683222	0.000802	-0.002215	0.730207	-0.122511	-0.240533	93.808152	-0.066415	0.997783	0.004198	-0.997790	-0.066406	-0.002138	-0.001855	-0.004331	0.999988
54878	89870659	0.034004	-0.345577	9.920059				0.000084	-0.000872	0.024800	1.000000	0.000164	-0.000017	0.000169	0.683098	0.000926	-0.002107	0.730323	-0.103838	-0.242446	93.827527	-0.066752	0.997760	0.004231	-0.997768	-0.066745	-0.001812	-0.001526	-0.004343	0.999989
54879	89870684	0.006608	-0.414836	9.909124				0.000016	-0.001045	0.024772	1.000000	0.000160	-0.000020	0.000177	0.682951	0.001081	-0.001956	0.730460	-0.079139	-0.243627	93.850476	-0.067152	0.997733	0.004252	-0.997742	-0.067147	-0.001381	-0.001093	-0.004335	0.999990
54880	89870709	-0.017395	-0.454701	9.909086				-0.000043	-0.001143	0.024772	1.000000	0.000122	0.000012	0.000126	0.682859	0.001156	-0.001859	0.730547	-0.065206	-0.242259	93.864931	-0.067404	0.997717	0.004228	-0.997725	-0.067399	-0.001138	-0.000850	-0.004295	0.999990
54881	89870734	-0.069850	-0.494814	9.922555	0.393214	-0.030652	-0.933552	-0.000173	-0.001242	0.024806	1.000000	0.000103	0.000029	0.000109	0.682779	0.001205	-0.001764	0.730621	-0.053439	-0.238917	93.877454	-0.067622	0.997702	0.004170	-0.997711	-0.067618	-0.000933	-0.000649	-0.004223	0.999991
54882	89870759	-0.073594	-0.505804	9.939022				-0.000183	-0.001268	0.024847	1.000000	0.000073	0.000011	0.000053	0.682740	0.001247	-0.001703	0.730658	-0.045082	-0.237643	93.883574	-0.067728	0.997695	0.004148	-0.997703	-0.067726	-0.000787	-0.000504	-0.004191	0.999991
54883	89870784	-0.076937	-0.490845	9.959529				-0.000191	-0.001231	0.024899	1.000000	0.000086	0.000024	0.000055	0.682610	0.001396	-0.001567	0.730780	-0.022069	-0.239450	93.903989	-0.068084	0.997671	0.004179	-0.997680	-0.068083	-0.000385	-0.000100	-0.004196	0.999991
54884	89870809	-0.070497	-0.498719	9.974684				-0.000173	-0.001251	0.024937	1.000000	0.000075	0.000058	0.000022	0.682594	0.001404	-0.001473	0.730795	-0.013506	-0.232748	93.906499	-0.068128	0.997668	0.004062	-0.997677	-0.068127	-0.000236	0.000042	-0.004069	0.999992
54885	89870834	-0.019906	-0.454797	10.014661	0.393672	-0.031157	-0.934551	-0.000047	-0.001141	0.025036	1.000000	0.000070	0.000060	-0.000023	0.682611	0.001408	-0.001380	0.730779	-0.005453	-0.225816	93.903814	-0.068081	0.997672	0.003941	-0.997680	-0.068081	-0.000095	0.000173	-0.003939	0.999992
54886	89870859	-0.001535	-0.429079	10.040741				-0.000002	-0.001075	0.025102	1.000000	0.000039	0.000045	-0.000051	0.682648	0.001402	-0.001321	0.730744	-0.000921	-0.220685	93.897926	-0.067979	0.997679	0.003852	-0.997687	-0.067979	-0.000016	0.000246	-0.003844	0.999992
54887	89870884	-0.002066	-0.352123	10.072049				-0.000001	-0.000882	0.025180	1.000000	0.000040	0.000089	-0.000117	0.682651	0.001437	-0.001218	0.730742	0.010421	-0.215655	93.897474	-0.067971	0.997680	0.003764	-0.997687	-0.067972	0.000182	0.000437	-0.003743	0.999993
54888	89870909	-0.021873	-0.231174	10.129113				-0.000051	-0.000579	0.025323	1.000000	0.000025	0.000073	-0.000122	0.682740	0.001401	-0.001150	0.730659	0.013282	-0.207286	93.883500	-0.067727	0.997697	0.003618	-0.997703	-0.067729	0.000232	0.000476	-0.003594	0.999993
54889	89870934	-0.009922	-0.169401	10.190714	0.392755	-0.031629	-0.933577	-0.000021	-0.000422	0.025477	1.000000	-0.000026	0.000077	-0.000146	0.682847	0.001327	-0.001117	0.730559	0.010347	-0.198437	93.866722	-0.067435	0.997717	0.003463	-0.997723	-0.067436	0.000181	0.000414	-0.003443	0.999994
54890	89870959	0.038985	-0.107876	10.259419				0.000099	-0.000266	0.025649	1.000000	-0.000064	0.000041	-0.000154	0.682960	0.001254	-0.001135	0.730453	0.003129	-0.193777	93.849091	-0.067128	0.997738	0.003382	-0.997744	-0.067128	0.000055	0.000282	-0.003371	0.999994
54891	89870984	0.092540	0.000826	10.290994				0.000234	0.000006	0.025727	1.000000	-0.000078	0.000048	-0.000158	0.682995	0.001258	-0.001071	0.730421	0.008830	-0.189110	93.843579	-0.067032	0.997745	0.003301	-0.997751	-0.067033	0.000154	0.000375	-0.003283	0.999995
54892	89871009	0.145124	0.091747	10.329472				0.000365	0.000234	0.025824	1.000000	-0.000102	0.000034	-0.000160	0.683112	0.001164	-0.001122	0.730312	-0.002756	-0.185234	93.825219	-0.066713	0.997767	0.003233	-0.997772	-0.066713	-0.000048	0.000168	-0.003229	0.999995
54893	89871034	0.157903	0.163030	10.352654	0.392760	-0.031134	-0.933071	0.000394	0.000415	0.025882	1.000000	-0.000143	-0.000014	-0.000156	0.683226	0.001077	-0.001235	0.730205	-0.019040	-0.186797	93.807330	-0.066401	0.997788	0.003260	-0.997793	-0.066400	-0.000332	-0.000115	-0.003275	0.999995
54894	89871059	0.125545	0.226784	10.359114				0.000313	0.000575	0.025898	1.000000	-0.000166	-0.000015	-0.000143	0.683331	0.000974	-0.001366	0.730107	-0.038007	-0.188517	93.790994	-0.066117	0.997806	0.003290	-0.997812	-0.066115	-0.000663	-0.000444	-0.003327	0.999994
54895	89871084	0.119683	0.268352	10.346601				0.000298	0.000680	0.025866	1.000000	-0.000184	-0.000024	-0.000102	0.683408	0.000921	-0.001394	0.730035	-0.044451	-0.186243	93.778928	-0.065906	0.997820	0.003251	-0.997825	-0.065904	-0.000776	-0.000560	-0.003295	0.999994
54896	89871109	0.142553	0.313060	10.341127				0.000353	0.000792	0.025853	1.000000	-0.000183	-0.000064	-0.000113	0.683490	0.000843	-0.001571	0.729957	-0.065401	-0.193535	93.765987	-0.065681	0.997835	0.003378	-0.997840	-0.065677	-0.001141	-0.000917	-0.003445	0.999993
54897	89871134	0.151152	0.322036	10.317850	0.393688	-0.029673	-0.933031	0.000373	0.000817	0.025794	1.000000	-0.000233	-0.000105	-0.000076	0.683546	0.000760	-0.001813	0.729905	-0.092118	-0.205576	93.757303	-0.065529	0.997844	0.003588	-0.997849	-0.065524	-0.001608	-0.001369	-0.003686	0.999992
54898	89871159	0.193101	0.360555	10.263131				0.000476	0.000912	0.025658	1.000000	-0.000213	-0.000128	-0.000063	0.683591	0.000708	-0.002056	0.729861	-0.116549	-0.220283	93.750138	-0.065404	0.997851	0.003845	-0.997857	-0.065397	-0.002034	-0.001778	-0.003969	0.999990
54899	89871184	0.178132	0.344176	10.197222				0.000437	0.000870	0.025493	1.000000	-0.000184	-0.000175	-0.000083	0.683704	0.000684	-0.002188	0.729755	-0.129337	-0.228659	93.732370	-0.065095	0.997871	0.003991	-0.997877	-0.065087	-0.002257	-0.001993	-0.004129	0.999989
54900	89871209	0.189726	0.336973	10.123276				0.000465	0.000853	0.025308	1.000000	-0.000203	-0.000176	-0.000026	0.683723	0.000674	-0.002457	0.729737	-0.152636	-0.248830	93.729439	-0.065044	0.997873	0.004343	-0.997879	-0.065033	-0.002664	-0.002376	-0.004507	0.999987
54901	89871234	0.166576	0.328630	10.028470	0.393670	-0.028689	-0.933008	0.000406	0.000830	0.025071	1.000000	-0.000160	-0.000207	0.000004	0.683719	0.000715	-0.002715	0.729739	-0.170952	-0.272508	93.730029	-0.065054	0.997870	0.004756	-0.997878	-0.065040	-0.002984	-0.002668	-0.004940	0.999984
54902	89871259	0.128703	0.291646	9.950133				0.000310	0.000736	0.024875	1.000000	-0.000134	-0.000229	0.000023	0.683702	0.000791	-0.002969	0.729754	-0.186273	-0.298775	93.732730	-0.065101	0.997864	0.005215	-0.997874	-0.065084	-0.003251	-0.002905	-0.005415	0.999981
54903	89871284	0.115798	0.250589	9.828093				0.000277	0.000632	0.024570	1.000000	-0.000121	-0.000253	0.000019	0.683745	0.000790	-0.003209	0.729714	-0.206438	-0.317494	93.726052	-0.064985	0.997871	0.005541	-0.997881	-0.064966	-0.003603	-0.003235	-0.005764	0.999978
54904	89871309	0.070676	0.213268	9.752477				0.000165	0.000538	0.024381	1.000000	-0.000107	-0.000242	0.000027	0.683724	0.000893	-0.003452	0.729732	-0.218710	-0.345164	93.729235	-0.065040	0.997864	0.006024	-0.997877	-0.065018	-0.003817	-0.003417	-0.006260	0.999974
54905	89871334	0.031324	0.176092	9.671400	0.391205	-0.027672	-0.934976	0.000067	0.000444	0.024178	1.000000	-0.000073	-0.000237	0.000067	0.683675	0.001016	-0.003668	0.729777	-0.227128	-0.372301	93.737025	-0.065175	0.997852	0.006498	-0.997867	-0.065151	-0.003964	-0.003532	-0.006742	0.999971
54906	89871359	-0.021228	0.127707	9.558735				-0.000064	0.000323	0.023897	1.000000	-0.000068	-0.000231	0.000077	0.683617	0.001138	-0.003876	0.729829	-0.234976	-0.398784	93.746020	-0.065332	0.997839	0.006960	-0.997857	-0.065304	-0.004101	-0.003638	-0.007213	0.999967
54907	89871384	-0.021709	0.097860	9.472406				-0.000064	0.000248	0.023681	1.000000	-0.000078	-0.000206	0.000060	0.683607	0.001214	-0.004110	0.729838	-0.248584	-0.423473	93.747657	-0.065360	0.997834	0.007391	-0.997854	-0.065330	-0.004338	-0.003846	-0.007659	0.999963
54908	89871409	-0.008170	0.054593	9.376623				-0.000030	0.000139	0.023442	1.000000	-0.000047	-0.000196	0.000061	0.683561	0.001324	-0.004278	0.729879	-0.254068	-0.445882	93.754796	-0.065484	0.997823	0.007782	-0.997846	-0.065451	-0.004434	-0.003915	-0.008056	0.999960
54909	89871434	0.026117	0.035061	9.342628	0.389776	-0.028634	-0.935501	0.000057	0.000089	0.023357	1.000000	-0.000039	-0.000182	0.000043	0.683529	0.001430	-0.004431	0.729908	-0.258580	-0.466666	93.759799	-0.065571	0.997814	0.008145	-0.997840	-0.065536	-0.004513	-0.003969	-0.008423	0.999956
54910	89871459	0.078080	-0.004675	9.295104				0.000190	-0.000010	0.023238	1.000000	-0.000026	-0.000114	0.000055	0.683488	0.001496	-0.004528	0.729946	-0.261607	-0.479745	93.766213	-0.065683	0.997805	0.008373	-0.997832	-0.065646	-0.004566	-0.004006	-0.008655	0.999954
54911	89871484	0.111565	-0.045914	9.265285				0.000274	-0.000113	0.023163	1.000000	-0.000034	-0.000115	0.000079	0.683408	0.001638	-0.004732	0.730019	-0.267637	-0.507586	93.778704	-0.065900	0.997787	0.008859	-0.997818	-0.065861	-0.004671	-0.004077	-0.009147	0.999950
54912	89871509	0.117051	-0.067399	9.239338				0.000289	-0.000168	0.023098	1.000000	-0.000019	-0.000073	0.000058	0.683366	0.001678	-0.004796	0.730059	-0.269857	-0.515913	93.785430	-0.066018	0.997778	0.009004	-0.997810	-0.065977	-0.004710	-0.004105	-0.009295	0.999948
54913	89871534	0.111661	-0.067588	9.213255	0.388831	-0.027628	-0.934493	0.000277	-0.000169	0.023033	1.000000	-0.000009	-0.000056	0.000060	0.683321	0.001712	-0.004841	0.730100	-0.270961	-0.522290	93.792372	-0.066138	0.997769	0.009116	-0.997802	-0.066097	-0.004729	-0.004116	-0.009408	0.999947
54914	89871559	0.061529	-0.125690	9.256991				0.000154	-0.000316	0.023142	1.000000	0.000028	0.000010	0.000059	0.683278	0.001724	-0.004814	0.730141	-0.267817	-0.521166	93.799187	-0.066257	0.997761	0.009096	-0.997794	-0.066217	-0.004674	-0.004061	-0.009386	0.999948
54915	89871584	0.072020	-0.119946	9.269391				0.000182	-0.000302	0.023173	1.000000	0.000050	0.000032	0.000060	0.683231	0.001814	-0.004869	0.730184	-0.265449	-0.532997	93.806500	-0.066384	0.997751	0.009302	-0.997786	-0.066344	-0.004633	-0.004005	-0.009589	0.999946
54916	89871609	0.039450	-0.144514	9.293945				0.000101	-0.000364	0.023235	1.000000	0.000053	0.000047	0.000028	0.683211	0.001815	-0.004799	0.730203	-0.259457	-0.527579	93.809649	-0.066439	0.997748	0.009208	-0.997783	-0.066400	-0.004528	-0.003907	-0.009488	0.999947
54917	89871634	0.053807	-0.160056	9.357193	0.390246	-0.026668	-0.934463	0.000138	-0.000404	0.023393	1.000000	0.000072	0.000082	0.000038	0.683183	0.001804	-0.004690	0.730230	-0.251220	-0.518154	93.813978	-0.066515	0.997745	0.009043	-0.997778	-0.066477	-0.004384	-0.003773	-0.009315	0.999950
54918	89871659	0.057702	-0.163621	9.402502				0.000147	-0.000413	0.023506	1.000000	0.000088	0.000059	0.000027	0.683163	0.001821	-0.004585	0.730249	-0.241134	-0.511359	93.817091	-0.066569	0.997742	0.008925	-0.997775	-0.066534	-0.004208	-0.003605	-0.009185	0.999951
54919	89871684	0.019728	-0.149011	9.498201				0.000054	-0.000377	0.023745	1.000000	0.000099	0.000104	-0.000005	0.683138	0.001833	-0.004510	0.730273	-0.233908	-0.506409	93.821030	-0.066638	0.997738	0.008838	-0.997771	-0.066604	-0.004082	-0.003484	-0.009091	0.999953
54920	89871709	0.032905	-0.098202	9.573573				0.000089	-0.000252	0.023934	1.000000	0.000142	0.000135	-0.000018	0.683151	0.001832	-0.004314	0.730262	-0.217581	-0.491004	93.818955	-0.066602	0.997743	0.008570	-0.997774	-0.066571	-0.003797	-0.003218	-0.008803	0.999956
54921	89871734	0.031673	-0.058986	9.651611	0.391702	-0.027183	-0.933972	0.000086	-0.000154	0.024129	1.000000	0.000125	0.000132	-0.000048	0.683187	0.001822	-0.004132	0.730230	-0.203156	-0.475914	93.813405	-0.066505	0.997751	0.008306	-0.997781	-0.066477	-0.003546	-0.002985	-0.008524	0.999959
54922	89871759	0.053586	-0.023420	9.705146				0.000140	-0.000064	0.024263	1.000000	0.000110	0.000134	-0.000062	0.683232	0.001799	-0.003960	0.730188	-0.190477	-0.460622	93.806232	-0.066380	0.997762	0.008039	-0.997790	-0.066355	-0.003324	-0.002783	-0.008242	0.999962
54923	89871784	0.089912	0.027239	9.808116				0.000231	0.000063	0.024520	1.000000	0.000097	0.000125	-0.000049	0.683197	0.001838	-0.003860	0.730222	-0.179104	-0.456057	93.811835	-0.066478	0.997756	0.007960	-0.997784	-0.066455	-0.003126	-0.002590	-0.008150	0.999963
54924	89871809	0.126462	0.069514	9.858983				0.000324	0.000170	0.024647	1.000000	0.000066	0.000153	-0.000086	0.683260	0.001772	-0.003707	0.730164	-0.171444	-0.438518	93.801976	-0.066306	0.997770	0.007654	-0.997796	-0.066285	-0.002992	-0.002478	-0.007835	0.999966
54925	89871834	0.165655	0.141796	9.911140	0.392249	-0.030143	-0.933545	0.000422	0.000352	0.024778	1.000000	0.000058	0.000151	-0.000057	0.683302	0.001702	-0.003561	0.730125	-0.164739	-0.421243	93.795354	-0.066191	0.997779	0.007352	-0.997804	-0.066171	-0.002875	-0.002382	-0.007526	0.999968
54926	89871859	0.176551	0.184934	9.982407				0.000449	0.000461	0.024956	1.000000	0.000016	0.000152	-0.000111	0.683383	0.001602	-0.003446	0.730050	-0.162828	-0.403839	93.782642	-0.065969	0.997796	0.007048	-0.997818	-0.065951	-0.002842	-0.002371	-0.007220	0.999970
54927	89871884	0.132582	0.258153	10.071021				0.000339	0.000647	0.025177	1.000000	-0.000031	0.000144	-0.000074	0.683397	0.001579	-0.003303	0.730038	-0.152678	-0.390746	93.780538	-0.065933	0.997800	0.006820	-0.997821	-0.065916	-0.002665	-0.002209	-0.006981	0.999973
54928	89871909	0.126085	0.327037	10.135214				0.000321	0.000819	0.025338	1.000000	-0.000031	0.000103	-0.000089	0.683462	0.001483	-0.003255	0.729978	-0.156117	-0.378923	93.770359	-0.065756	0.997814	0.006613	-0.997833	-0.065739	-0.002725	-0.002284	-0.006778	0.999974
54929	89871934	0.176613	0.350691	10.195856	0.392827	-0.031617	-0.931103	0.000447	0.000880	0.025489	1.000000	-0.000064	0.000104	-0.000043	0.683494	0.001364	-0.003230	0.729948	-0.163365	-0.367076	93.765339	-0.065669	0.997821	0.006407	-0.997838	-0.065652	-0.002851	-0.002424	-0.006580	0.999975
54930	89871959	0.201606	0.380861	10.246682				0.000509	0.000956	0.025616	1.000000	-0.000077	0.000090	-0.000043	0.683526	0.001246	-0.003224	0.729918	-0.172133	-0.356741	93.760354	-0.065582	0.997828	0.006226	-0.997844	-0.065564	-0.003004	-0.002589	-0.006410	0.999976
54931	89871984	0.262877	0.380754	10.263552				0.000660	0.000955	0.025659	1.000000	-0.000060	0.000052	-0.000053	0.683608	0.001210	-0.003112	0.729842	-0.165472	-0.345031	93.747454	-0.065358	0.997844	0.006022	-0.997859	-0.065341	-0.002888	-0.002488	-0.006198	0.999978
54932	89872009	0.283671	0.357246	10.289802				0.000711	0.000895	0.025724	1.000000	-0.000040	0.000026	-0.000008	0.683614	0.001164	-0.003124	0.729836	-0.170076	-0.342014	93.746483	-0.065341	0.997845	0.005969	-0.997860	-0.065324	-0.002968	-0.002572	-0.006150	0.999978
54933	89872034	0.335121	0.365018	10.303844	0.393230	-0.029168	-0.932032	0.000837	0.000914	0.025760	1.000000	-0.000024	-0.000006	0.000012	0.683605	0.001152	-0.003145	0.729844	-0.172830	-0.342689	93.747853	-0.065365	0.997844	0.005981	-0.997858	-0.065348	-0.003016	-0.002619	-0.006165	0.999978
54934	89872059	0.312724	0.340551	10.321583				0.000781	0.000852	0.025804	1.000000	-0.000013	-0.000022	0.000037	0.683579	0.001158	-0.003170	0.729869	-0.174386	-0.345196	93.752063	-0.065438	0.997839	0.006025	-0.997853	-0.065421	-0.003044	-0.002643	-0.006211	0.999977
54935	89872084	0.299441	0.315294	10.314711				0.000747	0.000787	0.025787	1.000000	0.000030	-0.000026	0.000050	0.683595	0.001098	-0.003125	0.729854	-0.175363	-0.336595	93.749512	-0.065394	0.997842	0.005875	-0.997856	-0.065376	-0.003061	-0.002670	-0.006062	0.999978
54936	89872109	0.250680	0.263632	10.296692				0.000624	0.000655	0.025742	1.000000	0.000074	-0.000051	0.000053	0.683556	0.001186	-0.003106	0.729890	-0.166921	-0.342463	93.755583	-0.065499	0.997835	0.005977	-0.997850	-0.065483	-0.002913	-0.002516	-0.006155	0.999978
54937	89872134	0.261216	0.233018	10.261173	0.391740	-0.027671	-0.932994	0.000649	0.000577	0.025653	1.000000	0.000111	-0.000078	0.000090	0.683490	0.001319	-0.003078	0.729952	-0.154208	-0.351411	93.765982	-0.065680	0.997822	0.006133	-0.997838	-0.065665	-0.002691	-0.002283	-0.006297	0.999978
54938	89872159	0.248428	0.218230	10.215865				0.000616	0.000538	0.025540	1.000000	0.000145	-0.000102	0.000074	0.683435	0.001492	-0.003042	0.730004	-0.137676	-0.363022	93.774540	-0.065829	0.997811	0.006336	-0.997829	-0.065815	-0.002403	-0.001981	-0.006480	0.999977
54939	89872184	0.271764	0.142816	10.176497				0.000673	0.000350	0.025441	1.000000	0.000137	-0.000117	0.000078	0.683400	0.001530	-0.003073	0.730036	-0.137320	-0.368639	93.780068	-0.065925	0.997804	0.006434	-0.997822	-0.065911	-0.002397	-0.001967	-0.006578	0.999976
54940	89872209	0.263331	0.109179	10.120302				0.000652	0.000264	0.025301	1.000000	0.000173	-0.000120	0.000099	0.683327	0.001735	-0.003029	0.730104	-0.117553	-0.382318	93.791449	-0.066123	0.997789	0.006673	-0.997810	-0.066111	-0.002052	-0.001606	-0.006794	0.999975
54941	89872234	0.268416	0.080515	10.047746	0.390887	-0.031589	-0.932102	0.000665	0.000193	0.025120	1.000000	0.000169	-0.000115	0.000077	0.683270	0.001934	-0.002984	0.730157	-0.098203	-0.395447	93.800314	-0.066277	0.997777	0.006902	-0.997800	-0.066267	-0.001714	-0.001253	-0.007000	0.999974
54942	89872259	0.230619	0.037688	9.990018				0.000569	0.000087	0.024975	1.000000	0.000156	-0.000144	0.000083	0.683208	0.002145	-0.002968	0.730214	-0.080378	-0.411891	93.809821	-0.066443	0.997764	0.007189	-0.997789	-0.066434	-0.001403	-0.000922	-0.007266	0.999973
54943	89872284	0.201782	0.007100	9.926826				0.000497	0.000011	0.024817	1.000000	0.000141	-0.000143	0.000068	0.683158	0.002333	-0.002932	0.730261	-0.062733	-0.424744	93.817614	-0.066579	0.997754	0.007413	-0.997781	-0.066572	-0.001095	-0.000599	-0.007470	0.999972
54944	89872309	0.175621	-0.031500	9.881522				0.000432	-0.000084	0.024704	1.000000	0.000106	-0.000151	0.000077	0.683101	0.002515	-0.002958	0.730314	-0.050678	-0.441989	93.826510	-0.066733	0.997741	0.007714	-0.997771	-0.066729	-0.000884	-0.000368	-0.007756	0.999970
54945	89872334	0.125293	-0.053404	9.807181	0.390854	-0.030606	-0.932574	0.000305	-0.000136	0.024518	1.000000	0.000058	-0.000164	0.000054	0.683061	0.002674	-0.003027	0.730350	-0.044057	-0.460778	93.832747	-0.066842	0.997731	0.008042	-0.997763	-0.066838	-0.000769	-0.000230	-0.008075	0.999967
54946	89872359	0.114648	-0.057939	9.771464				0.000279	-0.000147	0.024429	1.000000	0.000036	-0.000151	0.000048	0.683025	0.002810	-0.003104	0.730383	-0.039935	-0.478132	93.838283	-0.066938	0.997722	0.008345	-0.997757	-0.066934	-0.000697	-0.000137	-0.008373	0.999964
54947	89872384	0.146824	-0.085264	9.716894				0.000359	-0.000212	0.024292	1.000000	-0.000024	-0.000159	0.000042	0.682963	0.003010	-0.003128	0.730440	-0.026212	-0.496777	93.847930	-0.067106	0.997708	0.008670	-0.997746	-0.067105	-0.000457	0.000125	-0.008681	0.999962
54948	89872409	0.184825	-0.089252	9.648598				0.000456	-0.000220	0.024122	1.000000	-0.000070	-0.000129	-0.000002	0.682964	0.003057	-0.003267	0.730438	-0.034214	-0.511585	93.847654	-0.067101	0.997706	0.008929	-0.997746	-0.067098	-0.000597	0.000003	-0.008949	0.999960
54949	89872434	0.200568	-0.105463	9.630898	0.389862	-0.028620	-0.932532	0.000495	-0.000259	0.024077	1.000000	-0.000097	-0.000136	-0.000007	0.682969	0.003090	-0.003431	0.730433	-0.045347	-0.527172	93.846873	-0.067087	0.997705	0.009201	-0.997747	-0.067083	-0.000791	-0.000172	-0.009233	0.999957
54950	89872459	0.203195	-0.120628	9.635084				0.000502	-0.000295	0.024088	1.000000	-0.000133	-0.000127	-0.000038	0.682997	0.003092	-0.003615	0.730406	-0.060567	-0.541776	93.842561	-0.067012	0.997707	0.009456	-0.997752	-0.067005	-0.001057	-0.000421	-0.009505	0.999955
54951	89872484	0.190983	-0.109141	9.595193				0.000472	-0.000265	0.023988	1.000000	-0.000160	-0.000106	-0.000045	0.682961	0.003218	-0.003687	0.730439	-0.056729	-0.557936	93.848119	-0.067108	0.997698	0.009738	-0.997745	-0.067102	-0.000990	-0.000334	-0.009782	0.999952
54952	89872509	0.157175	-0.099487	9.578461				0.000387	-0.000239	0.023946	1.000000	-0.000209	-0.000115	-0.000028	0.682981	0.003160	-0.003918	0.730418	-0.080643	-0.571159	93.844926	-0.067053	0.997699	0.009968	-0.997749	-0.067042	-0.001407	-0.000736	-0.010040	0.999949
54953	89872534	0.162260	-0.079404	9.564722	0.389881	-0.029605	-0.932555	0.000401	-0.000188	0.023912	1.000000	-0.000218	-0.000096	-0.000040	0.683011	0.003081	-0.004143	0.730390	-0.105553	-0.582150	93.840324	-0.066972	0.997703	0.010160	-0.997754	-0.066957	-0.001842	-0.001158	-0.010261	0.999946
54954	89872559	0.135850	-0.016980	9.517726				0.000335	-0.000030	0.023794	1.000000	-0.000257	-0.000093	-0.000049	0.683047	0.002974	-0.004393	0.730355	-0.134952	-0.592768	93.834730	-0.066875	0.997707	0.010346	-0.997760	-0.066854	-0.002355	-0.001658	-0.010480	0.999943
54955	89872584	0.135716	0.004301	9.487488				0.000335	0.000023	0.023719	1.000000	-0.000270	-0.000091	-0.000084	0.683094	0.002991	-0.004575	0.730310	-0.148722	-0.608468	93.827368	-0.066746	0.997713	0.010620	-0.997768	-0.066723	-0.002596	-0.001881	-0.010769	0.999940
54956	89872609	0.161067	0.089647	9.492906				0.000400	0.000237	0.023732	1.000000	-0.000265	-0.000053	-0.000079	0.683152	0.002849	-0.004805	0.730254	-0.179027	-0.614609	93.818377	-0.066590	0.997722	0.010727	-0.997777	-0.066560	-0.003124	-0.002403	-0.010911	0.999937
54957	89872634	0.123551	0.158701	9.491066	0.388413	-0.030079	-0.934058	0.000306	0.000411	0.023727	1.000000	-0.000305	-0.000067	-0.000111	0.683233	0.002691	-0.005073	0.730177	-0.213826	-0.622329	93.805725	-0.066369	0.997736	0.010861	-0.997790	-0.066332	-0.003732	-0.003003	-0.011085	0.999934
54958	89872659	0.091939	0.221718	9.530463				0.000229	0.000568	0.023826	1.000000	-0.000298	-0.000029	-0.000095	0.683304	0.002509	-0.005310	0.730110	-0.247814	-0.625743	93.794825	-0.066179	0.997747	0.010921	-0.997801	-0.066136	-0.004325	-0.003593	-0.011183	0.999931
54959	89872684	0.091876	0.292088	9.557676				0.000229	0.000743	0.023894	1.000000	-0.000269	-0.000014	-0.000124	0.683355	0.002435	-0.005519	0.730062	-0.271011	-0.635881	93.786855	-0.066041	0.997755	0.011098	-0.997809	-0.065992	-0.004730	-0.003987	-0.011386	0.999927
54960	89872709	0.185428	0.367801	9.560843				0.000464	0.000932	0.023902	1.000000	-0.000255	-0.000004	-0.000103	0.683431	0.002264	-0.005708	0.729990	-0.300124	-0.636422	93.775038	-0.065835	0.997769	0.011107	-0.997820	-0.065780	-0.005238	-0.004495	-0.011428	0.999924
54961	89872734	0.235771	0.440392	9.567810	0.387442	-0.026115	-0.931991	0.000589	0.001112	0.023919	1.000000	-0.000233	-0.000016	-0.000086	0.683493	0.002118	-0.005889	0.729930	-0.326725	-0.638353	93.765232	-0.065664	0.997779	0.011141	-0.997829	-0.065604	-0.005702	-0.004958	-0.011491	0.999921
54962	89872759	0.307164	0.472419	9.554490				0.000767	0.001192	0.023886	1.000000	-0.000239	-0.000015	-0.000062	0.683539	0.001966	-0.006073	0.729886	-0.354013	-0.640121	93.758193	-0.065541	0.997787	0.011172	-0.997835	-0.065475	-0.006178	-0.005433	-0.011553	0.999918
54963	89872784	0.335496	0.554304	9.569510				0.000838	0.001395	0.023923	1.000000	-0.000187	-0.000011	-0.000043	0.683590	0.001842	-0.006259	0.729837	-0.379193	-0.644405	93.750285	-0.065404	0.997795	0.011247	-0.997842	-0.065332	-0.006618	-0.005868	-0.011655	0.999915
54964	89872809	0.407970	0.599934	9.575359				0.001019	0.001509	0.023938	1.000000	-0.000201	-0.000013	-0.000009	0.683596	0.001714	-0.006415	0.729830	-0.402254	-0.645903	93.749262	-0.065386	0.997796	0.011273	-0.997840	-0.065310	-0.007020	-0.006268	-0.011708	0.999912
54965	89872834	0.439112	0.586125	9.604410	0.389775	-0.024684	-0.932934	0.001098	0.001473	0.024011	1.000000	-0.000162	-0.000002	0.000010	0.683590	0.001605	-0.006535	0.729836	-0.420795	-0.646136	93.750361	-0.065405	0.997795	0.011277	-0.997837	-0.065325	-0.007344	-0.006591	-0.011733	0.999909
54966	89872859	0.447336	0.571904	9.637388				0.001118	0.001436	0.024093	1.000000	-0.000123	-0.000002	0.000037	0.683563	0.001523	-0.006626	0.729860	-0.434908	-0.646334	93.754593	-0.065479	0.997790	0.011280	-0.997831	-0.065396	-0.007590	-0.006836	-0.011753	0.999908
54967	89872884	0.428459	0.553199	9.638683				0.001071	0.001387	0.024097	1.000000	-0.000077	-0.000005	0.000072	0.683577	0.001429	-0.006769	0.729846	-0.454198	-0.649752	93.752475	-0.065442	0.997792	0.011340	-0.997831	-0.065354	-0.007927	-0.007168	-0.011834	0.999904
54968	89872909	0.380251	0.547196	9.616390				0.000950	0.001370	0.024041	1.000000	-0.000039	-0.000012	0.000078	0.683520	0.001411	-0.006805	0.729899	-0.458734	-0.651003	93.761391	-0.065597	0.997782	0.011362	-0.997820	-0.065509	-0.008006	-0.007244	-0.011862	0.999904
54969	89872934	0.348585	0.487636	9.613618	0.388809	-0.025656	-0.933952	0.000871	0.001220	0.024034	1.000000	-0.000012	-0.000013	0.000104	0.683444	0.001411	-0.006823	0.729970	-0.460258	-0.652359	93.773294	-0.065805	0.997768	0.011386	-0.997806	-0.065716	-0.008032	-0.007266	-0.011889	0.999903
54970	89872959	0.377736	0.432028	9.604378				0.000945	0.001079	0.024011	1.000000	0.000027	0.000010	0.000120	0.683357	0.001422	-0.006797	0.730052	-0.457305	-0.651157	93.787025	-0.066044	0.997752	0.011365	-0.997791	-0.065956	-0.007981	-0.007213	-0.011867	0.999904
54971	89872984	0.375420	0.366042	9.567514				0.000937	0.000912	0.023919	1.000000	0.000066	-0.000017	0.000204	0.683262	0.001409	-0.006867	0.730140	-0.464248	-0.655621	93.801861	-0.066302	0.997734	0.011443	-0.997773	-0.066212	-0.008102	-0.007326	-0.011954	0.999902
54972	89873009	0.373876	0.306782	9.547114				0.000933	0.000764	0.023868	1.000000	0.000068	-0.000022	0.000186	0.683126	0.001471	-0.006833	0.730267	-0.456665	-0.658018	93.823254	-0.066674	0.997709	0.011484	-0.997749	-0.066585	-0.007970	-0.007187	-0.011990	0.999902
54973	89873034	0.353255	0.237938	9.517031	0.388770	-0.025169	-0.934930	0.000883	0.000590	0.023793	1.000000	0.000114	0.000000	0.000196	0.682983	0.001548	-0.006750	0.730402	-0.443875	-0.657836	93.845674	-0.067065	0.997682	0.011481	-0.997724	-0.066978	-0.007746	-0.006960	-0.011975	0.999904
54974	89873059	0.309533	0.197893	9.489429				0.000773	0.000491	0.023724	1.000000	0.000096	-0.000015	0.000205	0.682832	0.001623	-0.006691	0.730542	-0.433158	-0.659402	93.869221	-0.067474	0.997654	0.011508	-0.997698	-0.067390	-0.007559	-0.006766	-0.011992	0.999905
54975	89873084	0.247423	0.114930	9.459099				0.000618	0.000281	0.023648	1.000000	0.000139	-0.000001	0.000206	0.682738	0.001678	-0.006613	0.730631	-0.422417	-0.657863	93.883932	-0.067731	0.997638	0.011482	-0.997682	-0.067649	-0.007372	-0.006578	-0.011954	0.999907
54976	89873109	0.224009	0.065622	9.401500				0.000560	0.000158	0.023504	1.000000	0.000125	0.000010	0.000190	0.682599	0.001755	-0.006515	0.730762	-0.408323	-0.656591	93.905727	-0.068110	0.997612	0.011459	-0.997658	-0.068032	-0.007126	-0.006329	-0.011918	0.999909
54977	89873134	0.237885	-0.023224	9.386800	0.389292	-0.025170	-0.933443	0.000595	-0.000063	0.023467	1.000000	0.000102	0.000000	0.000205	0.682449	0.001823	-0.006441	0.730902	-0.396914	-0.656397	93.929252	-0.068520	0.997584	0.011456	-0.997631	-0.068444	-0.006927	-0.006126	-0.011904	0.999910
54978	89873159	0.269702	-0.086094	9.373524				0.000676	-0.000220	0.023434	1.000000	0.000113	0.000037	0.000190	0.682310	0.001872	-0.006333	0.731032	-0.384156	-0.652023	93.950944	-0.068897	0.997558	0.011380	-0.997606	-0.068824	-0.006704	-0.005905	-0.011814	0.999912
54979	89873184	0.265778	-0.152385	9.342156				0.000666	-0.000384	0.023355	1.000000	0.000080	0.000021	0.000195	0.682151	0.001962	-0.006299	0.731182	-0.374414	-0.656762	93.975973	-0.069334	0.997528	0.011462	-0.997577	-0.069262	-0.006534	-0.005724	-0.011888	0.999913
54980	89873209	0.236980	-0.225898	9.354542				0.000594	-0.000567	0.023386	1.000000	0.000053	0.000023	0.000198	0.682006	0.001980	-0.006244	0.731317	-0.368562	-0.653977	93.998614	-0.069728	0.997501	0.011414	-0.997550	-0.069658	-0.006432	-0.005621	-0.011834	0.999914
54981	89873234	0.198421	-0.264361	9.329714	0.388823	-0.025654	-0.933457	0.000498	-0.000663	0.023324	1.000000	0.000054	0.000041	0.000167	0.681884	0.001985	-0.006177	0.731432	-0.362642	-0.649110	94.017772	-0.070061	0.997478	0.011329	-0.997527	-0.069993	-0.006329	-0.005520	-0.011744	0.999916
54982	89873259	0.179965	-0.313499	9.320148				0.000453	-0.000784	0.023300	1.000000	0.000016	0.000065	0.000165	0.681763	0.001947	-0.006122	0.731544	-0.361076	-0.641533	94.036627	-0.070389	0.997456	0.011197	-0.997504	-0.070322	-0.006302	-0.005498	-0.011612	0.999917
54983	89873284	0.144454	-0.323483	9.333654				0.000365	-0.000809	0.023334	1.000000	0.000009	0.000089	0.000138	0.681639	0.002001	-0.005992	0.731661	-0.346141	-0.635812	94.056099	-0.070729	0.997434	0.011097	-0.997482	-0.070665	-0.006041	-0.005241	-0.011496	0.999920
54984	89873309	0.119364	-0.352342	9.340411				0.000302	-0.000881	0.023351	1.000000	0.000000	0.000073	0.000128	0.681546	0.001947	-0.005943	0.731749	-0.346300	-0.627388	94.070736	-0.070984	0.997417	0.010950	-0.997464	-0.070921	-0.006044	-0.005251	-0.011351	0.999922
54985	89873334	0.134153	-0.362872	9.344680	0.387868	-0.025638	-0.933461	0.000340	-0.000906	0.023362	1.000000	-0.000013	0.000102	0.000117	0.681460	0.001862	-0.005883	0.731829	-0.347925	-0.615588	94.084111	-0.071217	0.997403	0.010744	-0.997447	-0.071154	-0.006072	-0.005292	-0.011149	0.999924
54986	89873359	0.156134	-0.404103	9.373769				0.000396	-0.001010	0.023434	1.000000	-0.000005	0.000118	0.000099	0.681388	0.001772	-0.005806	0.731897	-0.348626	-0.602014	94.095385	-0.071413	0.997391	0.010507	-0.997433	-0.071352	-0.006084	-0.005319	-0.010914	0.999926
54987	89873384	0.195284	-0.425201	9.408387				0.000495	-0.001061	0.023521	1.000000	-0.000043	0.000134	0.000084	0.681274	0.001722	-0.005758	0.732004	-0.348556	-0.593920	94.113390	-0.071727	0.997370	0.010366	-0.997410	-0.071666	-0.006083	-0.005324	-0.010775	0.999928
54988	89873409	0.189499	-0.443708	9.448205				0.000482	-0.001108	0.023620	1.000000	-0.000017	0.000163	0.000079	0.681216	0.001590	-0.005659	0.732058	-0.350593	-0.575158	94.122366	-0.071883	0.997362	0.010038	-0.997398	-0.071824	-0.006119	-0.005382	-0.010452	0.999931
54989	89873434	0.213104	-0.440249	9.501864	0.389806	-0.027148	-0.933487	0.000542	-0.001100	0.023754	1.000000	-0.000012	0.000197	0.000065	0.681170	0.001438	-0.005533	0.732103	-0.351989	-0.552561	94.129643	-0.072010	0.997357	0.009644	-0.997389	-0.071953	-0.006143	-0.005433	-0.010061	0.999934
54990	89873459	0.217320	-0.459987	9.562302				0.000552	-0.001150	0.023906	1.000000	0.000010	0.000171	0.000042	0.681140	0.001320	-0.005410	0.732131	-0.350852	-0.532984	94.134351	-0.072092	0.997354	0.009302	-0.997383	-0.072037	-0.006123	-0.005437	-0.009719	0.999938
54991	89873484	0.182310	-0.438623	9.616869				0.000466	-0.001098	0.024042	1.000000	0.000029	0.000207	0.000015	0.681083	0.001241	-0.005284	0.732186	-0.346544	-0.516517	94.143318	-0.072249	0.997346	0.009015	-0.997372	-0.072196	-0.006048	-0.005381	-0.009428	0.999941
54992	89873509	0.196590	-0.412455	9.673121				0.000500	-0.001033	0.024183	1.000000	0.000035	0.000180	0.000026	0.681065	0.001132	-0.005136	0.732204	-0.342604	-0.495881	94.146161	-0.072298	0.997345	0.008655	-0.997369	-0.072248	-0.005979	-0.005338	-0.009064	0.999945
54993	89873534	0.198982	-0.388908	9.738935	0.390823	-0.028142	-0.932021	0.000509	-0.000975	0.024347	1.000000	0.000058	0.000233	0.000000	0.681066	0.001001	-0.004935	0.732204	-0.335939	-0.469149	94.146019	-0.072296	0.997349	0.008188	-0.997369	-0.072249	-0.005863	-0.005256	-0.008590	0.999949
54994	89873559	0.242971	-0.386537	9.806453				0.000620	-0.000970	0.024516	1.000000	0.000077	0.000253	-0.000002	0.681068	0.000868	-0.004706	0.732204	-0.327066	-0.440128	94.145667	-0.072290	0.997354	0.007682	-0.997370	-0.072247	-0.005708	-0.005138	-0.008074	0.999954
54995	89873584	0.292831	-0.394832	9.838387				0.000746	-0.000991	0.024595	1.000000	0.000074	0.000280	-0.000011	0.681040	0.000754	-0.004556	0.732232	-0.323440	-0.418828	94.150134	-0.072368	0.997351	0.007310	-0.997365	-0.072328	-0.005645	-0.005101	-0.007699	0.999957
54996	89873609	0.336793	-0.379933	9.923698				0.000854	-0.000955	0.024809	1.000000	0.000103	0.000248	-0.000047	0.681075	0.000643	-0.004312	0.732200	-0.311546	-0.390484	94.144597	-0.072272	0.997362	0.006815	-0.997373	-0.072236	-0.005437	-0.004931	-0.007190	0.999962
54997	89873634	0.305765	-0.318542	9.980863	0.392331	-0.030624	-0.931082	0.000776	-0.000801	0.024952	1.000000	0.000084	0.000232	-0.000036	0.681103	0.000531	-0.004092	0.732176	-0.301875	-0.363886	94.140280	-0.072197	0.997370	0.006351	-0.997379	-0.072164	-0.005269	-0.004796	-0.006715	0.999966
54998	89873659	0.267322	-0.318946	10.019012				0.000680	-0.000802	0.025047	1.000000	0.000090	0.000241	-0.000051	0.681141	0.000416	-0.003862	0.732142	-0.291539	-0.336297	94.134310	-0.072093	0.997381	0.005869	-0.997387	-0.072064	-0.005088	-0.004652	-0.006221	0.999970
54999	89873684	0.258769	-0.304221	10.060044				0.000658	-0.000765	0.025150	1.000000	0.000082	0.000229	-0.000036	0.681127	0.000312	-0.003636	0.732157	-0.280737	-0.310001	94.136575	-0.072133	0.997380	0.005411	-0.997385	-0.072107	-0.004900	-0.004497	-0.005750	0.999973
55000	89873709	0.287916	-0.283852	10.091715				0.000732	-0.000712	0.025229	1.000000	0.000042	0.000237	-0.000054	0.681167	0.000168	-0.003444	0.732120	-0.275888	-0.282929	94.130248	-0.072023	0.997391	0.004938	-0.997393	-0.071999	-0.004815	-0.004447	-0.005272	0.999976
55001	89873734	0.300820	-0.268705	10.124670	0.393268	-0.029656	-0.931054	0.000764	-0.000673	0.025311	1.000000	0.000021	0.000246	-0.000044	0.681200	0.000002	-0.003262	0.732090	-0.273493	-0.254762	94.125111	-0.071934	0.997399	0.004446	-0.997399	-0.071912	-0.004773	-0.004441	-0.004778	0.999978
55002	89873759	0.292966	-0.259649	10.156100				0.000742	-0.000649	0.025390	1.000000	0.000002	0.000181	-0.000076	0.681256	-0.000130	-0.003137	0.732038	-0.273267	-0.234022	94.116305	-0.071780	0.997412	0.004084	-0.997410	-0.071761	-0.004769	-0.004464	-0.004416	0.999980
55003	89873784	0.232484	-0.224320	10.183002				0.000591	-0.000560	0.025457	1.000000	-0.000013	0.000185	-0.000092	0.681300	-0.000232	-0.002905	0.731999	-0.261824	-0.207346	94.109425	-0.071661	0.997422	0.003619	-0.997420	-0.071644	-0.004570	-0.004299	-0.003937	0.999983
55004	89873809	0.183214	-0.195848	10.196272				0.000467	-0.000487	0.025491	1.000000	-0.000051	0.000179	-0.000104	0.681377	-0.000397	-0.002821	0.731927	-0.267621	-0.186916	94.097380	-0.071451	0.997439	0.003262	-0.997434	-0.071436	-0.004671	-0.004426	-0.003588	0.999984
55005	89873834	0.146018	-0.160098	10.224685	0.395119	-0.027229	-0.931482	0.000373	-0.000397	0.025562	1.000000	-0.000062	0.000157	-0.000108	0.681456	-0.000555	-0.002759	0.731853	-0.274706	-0.168939	94.084910	-0.071234	0.997455	0.002949	-0.997449	-0.071220	-0.004794	-0.004572	-0.003283	0.999984
55006	89873859	0.132330	-0.073130	10.244894				0.000338	-0.000177	0.025612	1.000000	-0.000107	0.000150	-0.000131	0.681552	-0.000737	-0.002735	0.731764	-0.286933	-0.151785	94.069797	-0.070971	0.997475	0.002649	-0.997466	-0.070957	-0.005008	-0.004807	-0.002998	0.999984
55007	89873884	0.135851	-0.032936	10.258496				0.000346	-0.000076	0.025646	1.000000	-0.000135	0.000123	-0.000154	0.681619	-0.000842	-0.002639	0.731702	-0.287048	-0.135527	94.059292	-0.070789	0.997489	0.002365	-0.997480	-0.070776	-0.005010	-0.004830	-0.002714	0.999985
55008	89873909	0.174301	0.046443	10.231084				0.000442	0.000126	0.025578	1.000000	-0.000187	0.000119	-0.000146	0.681726	-0.001056	-0.002694	0.731602	-0.308399	-0.121936	94.042543	-0.070497	0.997510	0.002128	-0.997498	-0.070485	-0.005383	-0.005219	-0.002502	0.999983
55009	89873934	0.221397	0.095669	10.213430	0.397531	-0.027761	-0.930987	0.000558	0.000249	0.025533	1.000000	-0.000197	0.000080	-0.000164	0.681846	-0.001248	-0.002784	0.731489	-0.330888	-0.112899	94.023659	-0.070168	0.997533	0.001970	-0.997519	-0.070156	-0.005775	-0.005623	-0.002371	0.999981
55010	89873959	0.241117	0.168088	10.153001				0.000606	0.000432	0.025382	1.000000	-0.000236	0.000068	-0.000163	0.681965	-0.001458	-0.002910	0.731377	-0.357885	-0.105207	94.005001	-0.069843	0.997556	0.001836	-0.997539	-0.069830	-0.006246	-0.006103	-0.002268	0.999979
55011	89873984	0.235200	0.244399	10.115678				0.000590	0.000624	0.025289	1.000000	-0.000253	0.000040	-0.000164	0.682057	-0.001607	-0.002908	0.731292	-0.369250	-0.092609	93.990573	-0.069592	0.997574	0.001616	-0.997555	-0.069580	-0.006445	-0.006316	-0.002061	0.999978
55012	89874009	0.209834	0.328202	10.098817				0.000526	0.000835	0.025247	1.000000	-0.000300	0.000015	-0.000180	0.682188	-0.001821	-0.003117	0.731168	-0.403560	-0.091065	93.969958	-0.069233	0.997599	0.001589	-0.997576	-0.069220	-0.007043	-0.006916	-0.002073	0.999974
55013	89874034	0.160366	0.403800	10.054367	0.399027	-0.027282	-0.928494	0.000401	0.001025	0.025135	1.000000	-0.000315	-0.000001	-0.000129	0.682281	-0.002035	-0.003348	0.731079	-0.439627	-0.091261	93.955196	-0.068976	0.997617	0.001593	-0.997590	-0.068962	-0.007673	-0.007545	-0.002118	0.999969
55014	89874059	0.111104	0.463470	10.020935				0.000277	0.001175	0.025052	1.000000	-0.000318	-0.000021	-0.000123	0.682370	-0.002236	-0.003595	0.730994	-0.476010	-0.093770	93.941149	-0.068732	0.997634	0.001637	-0.997602	-0.068716	-0.008308	-0.008176	-0.002204	0.999964
55015	89874084	0.120568	0.492730	9.977049				0.000300	0.001249	0.024942	1.000000	-0.000338	-0.000033	-0.000084	0.682455	-0.002426	-0.003734	0.730914	-0.502520	-0.088787	93.927769	-0.068499	0.997650	0.001550	-0.997614	-0.068482	-0.008771	-0.008644	-0.002147	0.999960
55016	89874109	0.116821	0.510170	9.909745				0.000290	0.001292	0.024774	1.000000	-0.000331	-0.000037	-0.000118	0.682540	-0.002624	-0.004002	0.730832	-0.540418	-0.093207	93.914263	-0.068263	0.997666	0.001627	-0.997624	-0.068245	-0.009432	-0.009299	-0.002267	0.999954
55017	89874134	0.143974	0.534657	9.856365	0.397501	-0.023815	-0.929410	0.000358	0.001353	0.024640	1.000000	-0.000326	-0.000041	-0.000086	0.682602	-0.002817	-0.004268	0.730772	-0.577706	-0.097962	93.904405	-0.068092	0.997677	0.001710	-0.997629	-0.068071	-0.010083	-0.009943	-0.002392	0.999948
55018	89874159	0.110868	0.600010	9.823015				0.000275	0.001516	0.024557	1.000000	-0.000324	-0.000054	-0.000049	0.682637	-0.002998	-0.004541	0.730737	-0.614822	-0.104156	93.898826	-0.067995	0.997684	0.001818	-0.997629	-0.067971	-0.010730	-0.010582	-0.002543	0.999941
55019	89874184	0.130439	0.600616	9.760028				0.000324	0.001515	0.024399	1.000000	-0.000267	-0.000046	-0.000027	0.682705	-0.003141	-0.004731	0.730672	-0.641868	-0.107075	93.888134	-0.067809	0.997697	0.001869	-0.997637	-0.067784	-0.011202	-0.011050	-0.002624	0.999936
55020	89874209	0.107977	0.620465	9.677498				0.000266	0.001563	0.024193	1.000000	-0.000242	-0.000076	-0.000020	0.682718	-0.003251	-0.004960	0.730658	-0.669633	-0.115837	93.885999	-0.067771	0.997699	0.002022	-0.997634	-0.067743	-0.011687	-0.011523	-0.002809	0.999930
55021	89874234	0.109363	0.598950	9.656997	0.395987	-0.023309	-0.931879	0.000272	0.001508	0.024142	1.000000	-0.000225	-0.000024	0.000018	0.682704	-0.003387	-0.005141	0.730669	-0.695388	-0.118581	93.888139	-0.067808	0.997696	0.002070	-0.997626	-0.067779	-0.012136	-0.011968	-0.002888	0.999924
55022	89874259	0.117598	0.598247	9.618618				0.000294	0.001503	0.024046	1.000000	-0.000162	-0.000005	0.000040	0.682673	-0.003494	-0.005263	0.730696	-0.713973	-0.119148	93.892785	-0.067889	0.997690	0.002080	-0.997617	-0.067858	-0.012461	-0.012291	-0.002921	0.999920
55023	89874284	0.110354	0.542321	9.606346				0.000276	0.001360	0.024016	1.000000	-0.000083	0.000009	0.000067	0.682683	-0.003607	-0.005458	0.730685	-0.739195	-0.124960	93.891122	-0.067861	0.997692	0.002181	-0.997614	-0.067827	-0.012901	-0.012723	-0.003051	0.999914
55024	89874309	0.128696	0.487934	9.598393				0.000323	0.001221	0.023996	1.000000	-0.000017	0.000032	0.000088	0.682619	-0.003643	-0.005448	0.730745	-0.741191	-0.121138	93.901150	-0.068035	0.997681	0.002114	-0.997601	-0.068002	-0.012936	-0.012762	-0.002989	0.999914
55025	89874334	0.104483	0.458469	9.610644	0.394047	-0.023281	-0.932878	0.000264	0.001144	0.024027	1.000000	0.000047	0.000055	0.000135	0.682521	-0.003652	-0.005376	0.730837	-0.735851	-0.114604	93.916516	-0.068303	0.997662	0.002000	-0.997584	-0.068271	-0.012843	-0.012676	-0.002873	0.999915
55026	89874359	0.079587	0.408507	9.588680				0.000203	0.001017	0.023972	1.000000	0.000083	0.000080	0.000109	0.682442	-0.003654	-0.005260	0.730911	-0.726365	-0.105279	93.928886	-0.068518	0.997648	0.001837	-0.997571	-0.068489	-0.012677	-0.012521	-0.002702	0.999918
55027	89874384	0.070774	0.364559	9.561298				0.000181	0.000904	0.023903	1.000000	0.000149	0.000095	0.000098	0.682415	-0.003701	-0.005313	0.730936	-0.734480	-0.105465	93.933096	-0.068591	0.997643	0.001841	-0.997564	-0.068562	-0.012819	-0.012662	-0.002715	0.999916
55028	89874409	0.081091	0.312548	9.580739				0.000207	0.000773	0.023952	1.000000	0.000182	0.000088	0.000150	0.682307	-0.003642	-0.005120	0.731039	-0.713625	-0.095199	93.950188	-0.068889	0.997623	0.001662	-0.997548	-0.068863	-0.012455	-0.012311	-0.002515	0.999921
55029	89874434	0.080702	0.238820	9.574133	0.395484	-0.024293	-0.933389	0.000206	0.000587	0.023936	1.000000	0.000221	0.000099	0.000132	0.682211	-0.003564	-0.004890	0.731130	-0.688325	-0.083670	93.965198	-0.069150	0.997605	0.001460	-0.997535	-0.069128	-0.012013	-0.011884	-0.002287	0.999927
55030	89874459	0.102787	0.207058	9.548328				0.000264	0.000506	0.023871	1.000000	0.000252	0.000140	0.000149	0.682104	-0.003495	-0.004609	0.731233	-0.659453	-0.067395	93.982103	-0.069445	0.997585	0.001176	-0.997521	-0.069427	-0.011509	-0.011400	-0.001973	0.999933
55031	89874484	0.114595	0.138881	9.576080				0.000293	0.000334	0.023940	1.000000	0.000273	0.000135	0.000186	0.681992	-0.003455	-0.004472	0.731338	-0.644729	-0.059950	93.999628	-0.069750	0.997564	0.001046	-0.997502	-0.069734	-0.011252	-0.011152	-0.001829	0.999936
55032	89874509	0.074690	0.070698	9.588389				0.000194	0.000164	0.023971	1.000000	0.000265	0.000156	0.000185	0.681858	-0.003389	-0.004171	0.731465	-0.614407	-0.041865	94.020662	-0.070116	0.997539	0.000731	-0.997482	-0.070105	-0.010723	-0.010646	-0.001481	0.999942
55033	89874534	0.037698	0.012418	9.599292	0.396515	-0.025285	-0.931428	0.000101	0.000017	0.023998	1.000000	0.000284	0.000142	0.000177	0.681730	-0.003300	-0.003866	0.731586	-0.581873	-0.025399	94.040794	-0.070467	0.997514	0.000443	-0.997463	-0.070459	-0.010155	-0.010099	-0.001158	0.999948
55034	89874559	0.024117	-0.024282	9.628133				0.000068	-0.000073	0.024070	1.000000	0.000256	0.000169	0.000167	0.681609	-0.003249	-0.003563	0.731701	-0.552487	-0.005833	94.059792	-0.070798	0.997491	0.000102	-0.997444	-0.070793	-0.009643	-0.009611	-0.000784	0.999954
55035	89874584	-0.015645	-0.090083	9.603410				-0.000029	-0.000236	0.024008	1.000000	0.000218	0.000199	0.000181	0.681486	-0.003203	-0.003279	0.731817	-0.525124	0.012491	94.079110	-0.071134	0.997467	-0.000218	-0.997425	-0.071133	-0.009165	-0.009157	-0.000434	0.999958
55036	89874609	-0.066632	-0.113692	9.622329				-0.000158	-0.000295	0.024056	1.000000	0.000226	0.000181	0.000175	0.681359	-0.003182	-0.002990	0.731937	-0.499176	0.033440	94.099022	-0.071480	0.997442	-0.000584	-0.997404	-0.071483	-0.008712	-0.008732	-0.000041	0.999962
55037	89874634	-0.085692	-0.158065	9.693671	0.396586	-0.026755	-0.929979	-0.000204	-0.000406	0.024234	1.000000	0.000221	0.000201	0.000166	0.681239	-0.003179	-0.002690	0.732049	-0.473816	0.056637	94.117800	-0.071807	0.997418	-0.000988	-0.997384	-0.071813	-0.008270	-0.008319	0.000392	0.999965
55038	89874659	-0.071829	-0.203608	9.730950				-0.000169	-0.000519	0.024327	1.000000	0.000211	0.000208	0.000159	0.681124	-0.003187	-0.002394	0.732158	-0.449596	0.080572	94.135830	-0.072121	0.997395	-0.001406	-0.997364	-0.072130	-0.007847	-0.007928	0.000837	0.999968
55039	89874684	-0.067703	-0.248408	9.776382				-0.000158	-0.000629	0.024441	1.000000	0.000153	0.000221	0.000123	0.681022	-0.003161	-0.002113	0.732253	-0.424036	0.100327	94.151680	-0.072397	0.997374	-0.001751	-0.997348	-0.072408	-0.007401	-0.007508	0.001211	0.999971
55040	89874709	-0.068937	-0.249731	9.799701				-0.000162	-0.000631	0.024499	1.000000	0.000143	0.000219	0.000091	0.680957	-0.003224	-0.001860	0.732314	-0.407671	0.125457	94.161925	-0.072575	0.997360	-0.002190	-0.997336	-0.072589	-0.007115	-0.007255	0.001667	0.999972
55041	89874734	-0.069111	-0.287518	9.847819	0.398539	-0.028263	-0.929509	-0.000161	-0.000725	0.024619	1.000000	0.000116	0.000230	0.000063	0.680911	-0.003314	-0.001618	0.732357	-0.394372	0.151890	94.169016	-0.072698	0.997350	-0.002651	-0.997329	-0.072715	-0.006883	-0.007058	0.002144	0.999973
55042	89874759	-0.056020	-0.279336	9.895878				-0.000128	-0.000703	0.024740	1.000000	0.000087	0.000234	0.000056	0.680870	-0.003426	-0.001395	0.732394	-0.384409	0.178726	94.175296	-0.072807	0.997341	-0.003119	-0.997322	-0.072827	-0.006709	-0.006918	0.002623	0.999972
55043	89874784	-0.063920	-0.244440	9.947818				-0.000148	-0.000614	0.024870	1.000000	0.000060	0.000242	0.000022	0.680774	-0.003433	-0.001102	0.732484	-0.360346	0.202181	94.190328	-0.073069	0.997320	-0.003529	-0.997305	-0.073090	-0.006289	-0.006530	0.003060	0.999974
55044	89874809	-0.058981	-0.221813	9.994406				-0.000136	-0.000555	0.024986	1.000000	0.000008	0.000226	0.000024	0.680757	-0.003593	-0.000942	0.732500	-0.359396	0.228117	94.192976	-0.073115	0.997315	-0.003981	-0.997302	-0.073139	-0.006273	-0.006547	0.003512	0.999972
55045	89874834	-0.063545	-0.220544	10.045108	0.400492	-0.029771	-0.929040	-0.000147	-0.000551	0.025113	1.000000	-0.000011	0.000226	0.000017	0.680744	-0.003766	-0.000796	0.732511	-0.360661	0.254028	94.194787	-0.073146	0.997311	-0.004434	-0.997299	-0.073173	-0.006295	-0.006602	0.003961	0.999970
55046	89874859	-0.036925	-0.187857	10.052058				-0.000082	-0.000468	0.025130	1.000000	-0.000030	0.000205	0.000024	0.680727	-0.003937	-0.000679	0.732526	-0.364094	0.277570	94.197367	-0.073191	0.997306	-0.004844	-0.997295	-0.073221	-0.006355	-0.006692	0.004366	0.999967
55047	89874884	-0.057470	-0.175813	10.077929				-0.000134	-0.000439	0.025195	1.000000	-0.000019	0.000197	0.000010	0.680691	-0.004011	-0.000443	0.732560	-0.350011	0.302130	94.202957	-0.073289	0.997297	-0.005273	-0.997290	-0.073320	-0.006109	-0.006479	0.004811	0.999967
55048	89874909	-0.016449	-0.137497	10.104165				-0.000031	-0.000342	0.025260	1.000000	-0.000027	0.000205	0.000007	0.680685	-0.004179	-0.000323	0.732564	-0.353121	0.325605	94.203638	-0.073300	0.997294	-0.005683	-0.997288	-0.073335	-0.006163	-0.006563	0.005216	0.999965
55049	89874934	-0.041350	-0.128472	10.140990	0.402417	-0.029802	-0.928536	-0.000093	-0.000318	0.025353	1.000000	-0.000054	0.000209	0.000001	0.680684	-0.004369	-0.000221	0.732564	-0.359317	0.349525	94.203640	-0.073300	0.997291	-0.006100	-0.997287	-0.073338	-0.006271	-0.006702	0.005624	0.999961
55050	89874959	-0.050011	-0.108224	10.164184				-0.000115	-0.000269	0.025411	1.000000	-0.000039	0.000206	-0.000004	0.680687	-0.004546	-0.000110	0.732560	-0.363820	0.373094	94.203087	-0.073290	0.997289	-0.006512	-0.997287	-0.073331	-0.006350	-0.006810	0.006029	0.999958
55051	89874984	-0.075536	-0.131354	10.221684				-0.000180	-0.000326	0.025554	1.000000	-0.000053	0.000181	-0.000028	0.680682	-0.004682	-0.000008	0.732564	-0.365945	0.392417	94.203734	-0.073301	0.997286	-0.006849	-0.997286	-0.073345	-0.006387	-0.006872	0.006362	0.999956
55052	89875009	-0.092747	-0.099314	10.243404				-0.000221	-0.000246	0.025609	1.000000	-0.000045	0.000204	-0.000002	0.680682	-0.004863	0.000098	0.732562	-0.371084	0.415834	94.203419	-0.073295	0.997284	-0.007258	-0.997285	-0.073343	-0.006476	-0.006991	0.006763	0.999952
55053	89875034	-0.099997	-0.073419	10.288544	0.403840	-0.030816	-0.929541	-0.000241	-0.000182	0.025721	1.000000	-0.000032	0.000175	0.000020	0.680668	-0.005013	0.000193	0.732575	-0.374761	0.435869	94.205563	-0.073332	0.997278	-0.007607	-0.997282	-0.073383	-0.006541	-0.007081	0.007107	0.999949
55054	89875059	-0.151536	-0.084874	10.321131				-0.000370	-0.000211	0.025803	1.000000	-0.000029	0.000171	-0.000003	0.680669	-0.005157	0.000289	0.732572	-0.378053	0.455443	94.205154	-0.073325	0.997276	-0.007949	-0.997282	-0.073378	-0.006598	-0.007163	0.007443	0.999946
55055	89875084	-0.154432	-0.058790	10.326523				-0.000379	-0.000148	0.025816	1.000000	0.000016	0.000143	0.000013	0.680655	-0.005258	0.000424	0.732585	-0.374529	0.474477	94.207290	-0.073363	0.997271	-0.008281	-0.997280	-0.073417	-0.006536	-0.007127	0.007779	0.999944
55056	89875109	-0.157938	-0.034343	10.342871				-0.000386	-0.000088	0.025857	1.000000	0.000045	0.000162	-0.000003	0.680657	-0.005346	0.000567	0.732582	-0.369371	0.492985	94.206812	-0.073354	0.997269	-0.008604	-0.997281	-0.073410	-0.006446	-0.007060	0.008108	0.999942
55057	89875134	-0.135971	-0.055099	10.371910	0.405358	-0.032308	-0.927590	-0.000332	-0.000141	0.025930	1.000000	0.000072	0.000145	0.000001	0.680657	-0.005403	0.000718	0.732582	-0.361176	0.509587	94.206836	-0.073354	0.997266	-0.008894	-0.997282	-0.073412	-0.006303	-0.006939	0.008407	0.999940
55058	89875159	-0.077421	-0.046143	10.365427				-0.000188	-0.000118	0.025914	1.000000	0.000060	0.000114	0.000024	0.680640	-0.005446	0.000839	0.732598	-0.354334	0.522611	94.209467	-0.073400	0.997261	-0.009121	-0.997279	-0.073458	-0.006184	-0.006837	0.008642	0.999939
55059	89875184	-0.036985	-0.035867	10.368423				-0.000087	-0.000094	0.025921	1.000000	0.000074	0.000114	0.000011	0.680645	-0.005556	0.000956	0.732591	-0.353075	0.540963	94.208456	-0.073382	0.997259	-0.009441	-0.997280	-0.073442	-0.006162	-0.006839	0.008964	0.999936
55060	89875209	-0.045838	-0.003105	10.390189				-0.000109	-0.000014	0.025975	1.000000	0.000119	0.000115	0.000005	0.680642	-0.005559	0.001122	0.732594	-0.339399	0.554192	94.208964	-0.073391	0.997256	-0.009672	-0.997281	-0.073450	-0.005923	-0.006618	0.009211	0.999935
55061	89875234	-0.076316	-0.041036	10.395599	0.406328	-0.032323	-0.927090	-0.000185	-0.000110	0.025989	1.000000	0.000146	0.000112	0.000040	0.680613	-0.005542	0.001306	0.732620	-0.322623	0.567103	94.213489	-0.073469	0.997248	-0.009898	-0.997277	-0.073527	-0.005631	-0.006343	0.009457	0.999935
55062	89875259	-0.087025	-0.015296	10.411896				-0.000215	-0.000047	0.026030	1.000000	0.000174	0.000054	0.000029	0.680593	-0.005464	0.001470	0.732640	-0.302685	0.573358	94.216782	-0.073526	0.997243	-0.010007	-0.997275	-0.073582	-0.005283	-0.006004	0.009591	0.999936
55063	89875284	-0.080614	-0.019032	10.413332				-0.000197	-0.000057	0.026033	1.000000	0.000180	0.000077	0.000016	0.680580	-0.005493	0.001622	0.732651	-0.292213	0.587698	94.218787	-0.073561	0.997238	-0.010257	-0.997273	-0.073616	-0.005100	-0.005841	0.009854	0.999934
55064	89875309	-0.079015	-0.037444	10.428494				-0.000194	-0.000105	0.026071	1.000000	0.000222	0.000072	0.000024	0.680563	-0.005395	0.001834	0.732667	-0.266763	0.595969	94.221508	-0.073608	0.997233	-0.010401	-0.997272	-0.073660	-0.004656	-0.005409	0.010030	0.999935
55065	89875334	-0.089671	-0.036062	10.431162	0.406333	-0.031828	-0.926584	-0.000221	-0.000103	0.026078	1.000000	0.000254	0.000053	0.000058	0.680522	-0.005261	0.002056	0.732705	-0.237584	0.602073	94.228092	-0.073723	0.997223	-0.010508	-0.997266	-0.073770	-0.004146	-0.004910	0.010174	0.999936
55066	89875359	-0.047838	-0.033824	10.425956				-0.000116	-0.000099	0.026065	1.000000	0.000267	0.000063	0.000028	0.680503	-0.005125	0.002296	0.732723	-0.206898	0.609308	94.231243	-0.073777	0.997218	-0.010634	-0.997265	-0.073819	-0.003611	-0.004386	0.010339	0.999936
55067	89875384	-0.044385	-0.070016	10.439830				-0.000108	-0.000189	0.026099	1.000000	0.000275	0.000049	0.000036	0.680472	-0.005006	0.002466	0.732753	-0.183266	0.612641	94.236360	-0.073867	0.997211	-0.010692	-0.997260	-0.073905	-0.003198	-0.003980	0.010427	0.999938
55068	89875409	-0.034465	-0.091927	10.455062				-0.000085	-0.000247	0.026138	1.000000	0.000331	0.000024	0.000055	0.680433	-0.004798	0.002726	0.732789	-0.145254	0.615455	94.242618	-0.073976	0.997202	-0.010742	-0.997254	-0.074007	-0.002535	-0.003323	0.010524	0.999939
55069	89875434	-0.053361	-0.097548	10.460444	0.406370	-0.033798	-0.926630	-0.000132	-0.000262	0.026151	1.000000	0.000350	0.000026	0.000027	0.680415	-0.004579	0.002999	0.732806	-0.105171	0.618387	94.245652	-0.074028	0.997198	-0.010793	-0.997253	-0.074052	-0.001835	-0.002630	0.010627	0.999940
55070	89875459	-0.031088	-0.129686	10.459339				-0.000077	-0.000342	0.026148	1.000000	0.000337	0.000011	0.000036	0.680390	-0.004357	0.003254	0.732830	-0.066500	0.619605	94.249778	-0.074100	0.997192	-0.010814	-0.997249	-0.074117	-0.001161	-0.001959	0.010698	0.999941
55071	89875484	-0.003709	-0.158583	10.493917				-0.000009	-0.000415	0.026235	1.000000	0.000348	-0.000003	0.000025	0.680373	-0.004178	0.003502	0.732845	-0.031675	0.623904	94.252603	-0.074149	0.997188	-0.010889	-0.997246	-0.074160	-0.000553	-0.001359	0.010818	0.999941
55072	89875509	-0.000312	-0.180000	10.495392				-0.000002	-0.000468	0.026238	1.000000	0.000349	-0.000026	0.000024	0.680357	-0.003922	0.003740	0.732860	0.008379	0.620969	94.255328	-0.074197	0.997185	-0.010838	-0.997243	-0.074200	0.000146	-0.000658	0.010819	0.999941
55073	89875534	0.025015	-0.201335	10.464076	0.404929	-0.037231	-0.929192	0.000060	-0.000522	0.026160	1.000000	0.000350	-0.000047	0.000032	0.680336	-0.003649	0.003965	0.732881	0.048555	0.615583	94.258963	-0.074260	0.997181	-0.010744	-0.997239	-0.074255	0.000847	0.000047	0.010777	0.999942
55074	89875559	0.002542	-0.247403	10.475066				0.000003	-0.000636	0.026187	1.000000	0.000338	-0.000063	-0.000002	0.680339	-0.003372	0.004170	0.732878	0.087304	0.608333	94.258705	-0.074256	0.997183	-0.010617	-0.997239	-0.074244	0.001524	0.000731	0.010701	0.999942
55075	89875584	0.028409	-0.235203	10.468339				0.000067	-0.000605	0.026170	1.000000	0.000332	-0.000072	0.000001	0.680306	-0.003123	0.004424	0.732908	0.128119	0.607210	94.263997	-0.074348	0.997176	-0.010598	-0.997231	-0.074328	0.002236	0.001442	0.010735	0.999941
55076	89875609	0.058240	-0.287605	10.430304				0.000140	-0.000735	0.026075	1.000000	0.000304	-0.000101	-0.000013	0.680317	-0.002842	0.004578	0.732898	0.162963	0.595596	94.262467	-0.074321	0.997180	-0.010395	-0.997232	-0.074296	0.002844	0.002064	0.010578	0.999942
55077	89875634	0.045957	-0.274818	10.391756	0.406373	-0.040217	-0.930740	0.000111	-0.000701	0.025979	1.000000	0.000276	-0.000080	-0.000013	0.680328	-0.002596	0.004726	0.732888	0.194559	0.586463	94.260917	-0.074294	0.997184	-0.010236	-0.997233	-0.074263	0.003396	0.002626	0.010459	0.999942
55078	89875659	0.031961	-0.288829	10.375254				0.000073	-0.000735	0.025938	1.000000	0.000258	-0.000136	-0.000029	0.680350	-0.002321	0.004823	0.732867	0.224058	0.570926	94.257519	-0.074235	0.997191	-0.009964	-0.997236	-0.074200	0.003910	0.003160	0.010227	0.999943
55079	89875684	0.014763	-0.289841	10.344939				0.000029	-0.000735	0.025862	1.000000	0.000199	-0.000146	-0.000055	0.680366	-0.002052	0.004988	0.732852	0.258940	0.561168	94.255159	-0.074195	0.997196	-0.009794	-0.997237	-0.074153	0.004519	0.003780	0.010102	0.999942
55080	89875709	0.003001	-0.294579	10.310578				-0.000000	-0.000745	0.025776	1.000000	0.000174	-0.000150	-0.000050	0.680404	-0.001824	0.005013	0.732818	0.278782	0.544052	94.249376	-0.074094	0.997206	-0.009495	-0.997242	-0.074050	0.004865	0.004149	0.009830	0.999943
55081	89875734	0.038728	-0.287911	10.239460	0.406974	-0.042181	-0.927814	0.000089	-0.000726	0.025598	1.000000	0.000128	-0.000158	-0.000093	0.680473	-0.001622	0.005000	0.732754	0.293402	0.526042	94.238688	-0.073908	0.997222	-0.009181	-0.997255	-0.073863	0.005121	0.004428	0.009534	0.999944
55082	89875759	0.042279	-0.312402	10.205264				0.000097	-0.000787	0.025513	1.000000	0.000111	-0.000170	-0.000111	0.680555	-0.001422	0.004965	0.732678	0.305976	0.506584	94.225835	-0.073685	0.997242	-0.008841	-0.997270	-0.073639	0.005340	0.004674	0.009211	0.999946
55083	89875784	0.052703	-0.322036	10.151861				0.000122	-0.000810	0.025380	1.000000	0.000103	-0.000196	-0.000126	0.680583	-0.001108	0.005049	0.732653	0.337428	0.486793	94.221614	-0.073612	0.997251	-0.008496	-0.997273	-0.073563	0.005889	0.005248	0.008906	0.999946
55084	89875809	0.027141	-0.312549	10.117343				0.000056	-0.000783	0.025293	1.000000	0.000034	-0.000225	-0.000137	0.680685	-0.000921	0.004920	0.732559	0.341208	0.461062	94.205719	-0.073335	0.997275	-0.008047	-0.997293	-0.073288	0.005955	0.005349	0.008462	0.999950
55085	89875834	0.058591	-0.293588	10.066730	0.406511	-0.042170	-0.927322	0.000134	-0.000735	0.025167	1.000000	0.000015	-0.000233	-0.000183	0.680820	-0.000741	0.004772	0.732435	0.342763	0.434461	94.184599	-0.072968	0.997305	-0.007583	-0.997319	-0.072923	0.005982	0.005413	0.007999	0.999953
55086	89875859	0.059549	-0.245028	10.033672				0.000137	-0.000614	0.025084	1.000000	0.000020	-0.000241	-0.000207	0.680973	-0.000551	0.004622	0.732294	0.344841	0.406943	94.160701	-0.072552	0.997339	-0.007102	-0.997349	-0.072510	0.006018	0.005487	0.007520	0.999956
55087	89875884	0.033578	-0.218797	10.030664				0.000071	-0.000547	0.025077	1.000000	0.000001	-0.000260	-0.000211	0.681053	-0.000325	0.004571	0.732220	0.358176	0.384057	94.148146	-0.072334	0.997358	-0.006703	-0.997364	-0.072292	0.006251	0.005750	0.007138	0.999958
55088	89875909	0.035388	-0.190697	9.967492				0.000073	-0.000477	0.024919	1.000000	0.000004	-0.000299	-0.000236	0.681227	-0.000105	0.004370	0.732059	0.358404	0.349999	94.120835	-0.071859	0.997396	-0.006109	-0.997398	-0.071821	0.006255	0.005800	0.006542	0.999962
55089	89875934	0.091334	-0.136136	9.934760	0.404539	-0.041159	-0.928793	0.000215	-0.000340	0.024837	1.000000	-0.000002	-0.000262	-0.000271	0.681427	0.000084	0.004190	0.731874	0.357982	0.320155	94.089610	-0.071315	0.997438	-0.005588	-0.997437	-0.071280	0.006248	0.005834	0.006019	0.999965
55090	89875959	0.107101	-0.067557	9.877036				0.000254	-0.000168	0.024693	1.000000	-0.000020	-0.000275	-0.000276	0.681630	0.000271	0.003989	0.731686	0.355569	0.288841	94.057754	-0.070761	0.997480	-0.005041	-0.997476	-0.070729	0.006206	0.005834	0.005468	0.999968
55091	89875984	0.156737	-0.002367	9.803088				0.000378	-0.000006	0.024508	1.000000	-0.000012	-0.000278	-0.000279	0.681779	0.000493	0.003852	0.731548	0.361400	0.259617	94.034422	-0.070355	0.997512	-0.004531	-0.997504	-0.070326	0.006308	0.005973	0.004964	0.999970
55092	89876009	0.171533	0.040777	9.755032				0.000415	0.000102	0.024388	1.000000	-0.000007	-0.000283	-0.000288	0.681990	0.000694	0.003654	0.731352	0.360486	0.227391	94.001264	-0.069778	0.997555	-0.003969	-0.997544	-0.069752	0.006292	0.005999	0.004398	0.999972
55093	89876034	0.161047	0.103435	9.694425	0.401662	-0.042099	-0.929820	0.000391	0.000260	0.024236	1.000000	-0.000039	-0.000253	-0.000287	0.682201	0.000852	0.003454	0.731156	0.355935	0.198631	93.968183	-0.069202	0.997596	-0.003467	-0.997585	-0.069179	0.006212	0.005957	0.003888	0.999974
55094	89876059	0.110339	0.163190	9.663714				0.000264	0.000409	0.024159	1.000000	-0.000031	-0.000254	-0.000282	0.682408	0.001015	0.003258	0.730963	0.352313	0.169737	93.935713	-0.068636	0.997637	-0.002962	-0.997624	-0.068617	0.006149	0.005931	0.003377	0.999976
55095	89876084	0.100864	0.251602	9.634579				0.000240	0.000631	0.024087	1.000000	-0.000041	-0.000254	-0.000239	0.682574	0.001221	0.003059	0.730809	0.351693	0.137013	93.909590	-0.068182	0.997670	-0.002391	-0.997655	-0.068166	0.006138	0.005961	0.002804	0.999978
55096	89876109	0.094601	0.316146	9.598662				0.000226	0.000791	0.023997	1.000000	-0.000022	-0.000222	-0.000255	0.682761	0.001367	0.002892	0.730635	0.349087	0.111771	93.880240	-0.067671	0.997705	-0.001951	-0.997690	-0.067658	0.006093	0.005947	0.002359	0.999979
55097	89876134	0.102415	0.336610	9.578077	0.397794	-0.039571	-0.929780	0.000246	0.000842	0.023945	1.000000	-0.000011	-0.000222	-0.000245	0.682941	0.001521	0.002733	0.730467	0.347773	0.086515	93.851989	-0.067179	0.997739	-0.001510	-0.997723	-0.067168	0.006070	0.005955	0.001914	0.999980
55098	89876159	0.118918	0.386090	9.567083				0.000289	0.000968	0.023918	1.000000	-0.000057	-0.000180	-0.000263	0.683133	0.001613	0.002568	0.730287	0.341157	0.066022	93.821758	-0.066652	0.997775	-0.001152	-0.997758	-0.066644	0.005954	0.005864	0.001547	0.999981
55099	89876184	0.113889	0.449771	9.555864				0.000277	0.001125	0.023890	1.000000	-0.000021	-0.000163	-0.000230	0.683310	0.001814	0.002421	0.730122	0.344596	0.037756	93.793942	-0.066168	0.997808	-0.000659	-0.997791	-0.066163	0.006014	0.005958	0.001055	0.999982
55100	89876209	0.141346	0.493631	9.580591				0.000346	0.001234	0.023952	1.000000	0.000000	-0.000156	-0.000220	0.683471	0.001928	0.002314	0.729971	0.344591	0.020004	93.768632	-0.065727	0.997837	-0.000349	-0.997820	-0.065724	0.006014	0.005978	0.000744	0.999982
55101	89876234	0.155887	0.503071	9.568316	0.398206	-0.037614	-0.930721	0.000384	0.001258	0.023921	1.000000	-0.000011	-0.000133	-0.000215	0.683628	0.002016	0.002216	0.729824	0.343271	0.004954	93.743917	-0.065297	0.997866	-0.000086	-0.997848	-0.065295	0.005991	0.005973	0.000477	0.999982
55102	89876259	0.171681	0.527692	9.572460				0.000424	0.001319	0.023931	1.000000	-0.000003	-0.000125	-0.000197	0.683772	0.002105	0.002129	0.729689	0.342941	-0.009258	93.721262	-0.064902	0.997891	0.000162	-0.997873	-0.064902	0.005985	0.005983	0.000227	0.999982
55103	89876284	0.212551	0.534190	9.564455				0.000525	0.001333	0.023911	1.000000	0.000042	-0.000142	-0.000181	0.683947	0.002266	0.001995	0.729526	0.344402	-0.033052	93.693743	-0.064423	0.997922	0.000577	-0.997904	-0.064425	0.006011	0.006036	-0.000188	0.999982
55104	89876309	0.277277	0.528849	9.570395				0.000688	0.001319	0.023926	1.000000	0.000069	-0.000117	-0.000172	0.684072	0.002398	0.001966	0.729408	0.352311	-0.046379	93.673963	-0.064079	0.997944	0.000809	-0.997926	-0.064082	0.006149	0.006188	-0.000414	0.999981
55105	89876334	0.293385	0.529804	9.607498	0.398631	-0.037137	-0.932192	0.000728	0.001319	0.024019	1.000000	0.000106	-0.000127	-0.000149	0.684181	0.002563	0.001957	0.729305	0.364439	-0.060786	93.656818	-0.063780	0.997963	0.001061	-0.997943	-0.063785	0.006361	0.006415	-0.000653	0.999979
55106	89876359	0.290272	0.532697	9.625291				0.000721	0.001324	0.024064	1.000000	0.000150	-0.000107	-0.000127	0.684273	0.002743	0.001993	0.729218	0.381610	-0.072937	93.642174	-0.063525	0.997979	0.001273	-0.997957	-0.063532	0.006660	0.006728	-0.000847	0.999977
55107	89876384	0.272184	0.542624	9.651171				0.000677	0.001346	0.024129	1.000000	0.000207	-0.000084	-0.000120	0.684407	0.002880	0.001973	0.729092	0.390691	-0.085885	93.621131	-0.063158	0.998002	0.001499	-0.997980	-0.063167	0.006819	0.006900	-0.001065	0.999976
55108	89876409	0.263565	0.553611	9.685352				0.000655	0.001373	0.024214	1.000000	0.000230	-0.000088	-0.000103	0.684481	0.003101	0.002080	0.729021	0.417067	-0.095914	93.609298	-0.062952	0.998015	0.001674	-0.997989	-0.062963	0.007279	0.007370	-0.001212	0.999972
55109	89876434	0.256438	0.506685	9.675847	0.396256	-0.038575	-0.932733	0.000636	0.001253	0.024190	1.000000	0.000275	-0.000101	-0.000097	0.684551	0.003363	0.002212	0.728954	0.448548	-0.107426	93.598124	-0.062758	0.998027	0.001875	-0.997997	-0.062770	0.007829	0.007931	-0.001380	0.999967
55110	89876459	0.265823	0.506886	9.660820				0.000661	0.001253	0.024153	1.000000	0.000288	-0.000085	-0.000119	0.684636	0.003621	0.002364	0.728872	0.481550	-0.117026	93.584454	-0.062519	0.998041	0.002042	-0.998007	-0.062534	0.008405	0.008516	-0.001513	0.999962
55111	89876484	0.301284	0.490112	9.670717				0.000750	0.001211	0.024178	1.000000	0.000294	-0.000078	-0.000073	0.684689	0.003826	0.002419	0.728821	0.502259	-0.129724	93.575977	-0.062372	0.998050	0.002264	-0.998013	-0.062389	0.008766	0.008890	-0.001713	0.999959
55112	89876509	0.339506	0.479162	9.673726				0.000845	0.001181	0.024185	1.000000	0.000340	-0.000085	-0.000067	0.684737	0.004121	0.002609	0.728774	0.541266	-0.139407	93.568260	-0.062237	0.998058	0.002433	-0.998015	-0.062257	0.009447	0.009580	-0.001840	0.999952
55113	89876534	0.350585	0.464225	9.638213	0.395333	-0.039541	-0.932266	0.000873	0.001144	0.024096	1.000000	0.000342	-0.000079	-0.000071	0.684787	0.004412	0.002805	0.728724	0.580430	-0.148342	93.560057	-0.062094	0.998066	0.002589	-0.998017	-0.062117	0.010130	0.010271	-0.001955	0.999945
55114	89876559	0.323533	0.443641	9.666910				0.000806	0.001093	0.024168	1.000000	0.000328	-0.000056	-0.000040	0.684815	0.004677	0.003006	0.728696	0.618076	-0.154681	93.555404	-0.062013	0.998071	0.002700	-0.998015	-0.062039	0.010787	0.010934	-0.002025	0.999938
55115	89876584	0.325047	0.420638	9.680729				0.000810	0.001037	0.024203	1.000000	0.000305	-0.000048	-0.000047	0.684900	0.004940	0.003157	0.728614	0.651287	-0.164644	93.541805	-0.061776	0.998086	0.002874	-0.998023	-0.061805	0.011367	0.011523	-0.002166	0.999931
55116	89876609	0.321198	0.408310	9.698580				0.000800	0.001007	0.024247	1.000000	0.000290	-0.000064	-0.000018	0.684911	0.005185	0.003325	0.728600	0.684536	-0.171928	93.539684	-0.061739	0.998088	0.003001	-0.998019	-0.061771	0.011947	0.012110	-0.002257	0.999924
55117	89876634	0.352861	0.381545	9.712612	0.396826	-0.042026	-0.931822	0.000878	0.000942	0.024282	1.000000	0.000238	-0.000081	-0.000010	0.684917	0.005407	0.003443	0.728593	0.711841	-0.181140	93.538498	-0.061718	0.998088	0.003161	-0.998014	-0.061753	0.012424	0.012595	-0.002388	0.999917
55118	89876659	0.333195	0.345720	9.715362				0.000829	0.000855	0.024289	1.000000	0.000201	-0.000085	0.000010	0.684909	0.005606	0.003531	0.728598	0.734839	-0.190877	93.539524	-0.061736	0.998086	0.003331	-0.998007	-0.061774	0.012825	0.013006	-0.002533	0.999912
55119	89876684	0.317798	0.294983	9.708579				0.000790	0.000731	0.024272	1.000000	0.000143	-0.000099	0.000006	0.684934	0.005868	0.003691	0.728572	0.768696	-0.200183	93.535177	-0.061661	0.998091	0.003494	-0.998004	-0.061702	0.013416	0.013606	-0.002660	0.999904
55120	89876709	0.303329	0.279672	9.705791				0.000753	0.000694	0.024265	1.000000	0.000114	-0.000106	0.000003	0.684932	0.006023	0.003702	0.728573	0.781803	-0.212288	93.535370	-0.061664	0.998090	0.003705	-0.998001	-0.061709	0.013645	0.013847	-0.002856	0.999900
55121	89876734	0.340363	0.271902	9.662186	0.396376	-0.043494	-0.931859	0.000846	0.000675	0.024156	1.000000	0.000091	-0.000103	0.000022	0.684916	0.006160	0.003697	0.728587	0.792190	-0.224176	93.537684	-0.061704	0.998087	0.003913	-0.997995	-0.061753	0.013826	0.014041	-0.003052	0.999897
55122	89876759	0.309279	0.200593	9.664947				0.000766	0.000500	0.024163	1.000000	0.000036	-0.000139	0.000027	0.684897	0.006286	0.003627	0.728604	0.796264	-0.240173	93.540526	-0.061754	0.998082	0.004192	-0.997991	-0.061806	0.013897	0.014129	-0.003325	0.999894
55123	89876784	0.314076	0.162804	9.640421				0.000778	0.000407	0.024101	1.000000	0.000004	-0.000139	0.000004	0.684900	0.006489	0.003703	0.728599	0.818454	-0.251172	93.539790	-0.061741	0.998083	0.004384	-0.997987	-0.061798	0.014284	0.014528	-0.003493	0.999889
55124	89876809	0.288232	0.148319	9.648536				0.000715	0.000373	0.024121	1.000000	-0.000047	-0.000121	0.000004	0.684897	0.006545	0.003586	0.728601	0.813041	-0.265020	93.540038	-0.061746	0.998081	0.004625	-0.997988	-0.061806	0.014190	0.014448	-0.003740	0.999889
55125	89876834	0.259355	0.119425	9.615501	0.394894	-0.043971	-0.933857	0.000642	0.000301	0.024039	1.000000	-0.000051	-0.000132	0.000006	0.684894	0.006606	0.003458	0.728605	0.807169	-0.280135	93.540551	-0.061754	0.998080	0.004889	-0.997988	-0.061818	0.014087	0.014362	-0.004009	0.999889
55126	89876859	0.200307	0.111277	9.589073				0.000493	0.000282	0.023973	1.000000	-0.000086	-0.000158	-0.000022	0.684911	0.006662	0.003287	0.728589	0.797308	-0.298215	93.537762	-0.061706	0.998081	0.005205	-0.997993	-0.061773	0.013915	0.014210	-0.004336	0.999890
55127	89876884	0.203594	0.080156	9.554894				0.000502	0.000205	0.023887	1.000000	-0.000090	-0.000148	-0.000037	0.684897	0.006804	0.003232	0.728601	0.803820	-0.314407	93.539705	-0.061739	0.998077	0.005487	-0.997989	-0.061811	0.014029	0.014341	-0.004610	0.999886
55128	89876909	0.205318	0.081603	9.516496				0.000506	0.000208	0.023791	1.000000	-0.000075	-0.000144	-0.000044	0.684930	0.006857	0.003079	0.728570	0.795228	-0.330836	93.534462	-0.061648	0.998081	0.005774	-0.997997	-0.061723	0.013879	0.014208	-0.004907	0.999887
55129	89876934	0.193057	0.110549	9.476550	0.393949	-0.042965	-0.932849	0.000475	0.000281	0.023691	1.000000	-0.000094	-0.000155	-0.000051	0.684968	0.006905	0.002904	0.728535	0.784448	-0.348539	93.528431	-0.061542	0.998086	0.006083	-0.998005	-0.061621	0.013691	0.014039	-0.005228	0.999888
55130	89876959	0.176863	0.118334	9.438019				0.000435	0.000299	0.023595	1.000000	-0.000069	-0.000148	-0.000055	0.685009	0.006966	0.002753	0.728496	0.776598	-0.365420	93.521929	-0.061429	0.998091	0.006378	-0.998014	-0.061511	0.013553	0.013920	-0.005532	0.999887
55131	89876984	0.159238	0.123017	9.387151				0.000393	0.000312	0.023468	1.000000	-0.000102	-0.000109	-0.000088	0.685045	0.006996	0.002595	0.728463	0.765850	-0.380319	93.516183	-0.061329	0.998096	0.006638	-0.998023	-0.061414	0.013366	0.013748	-0.005805	0.999889
55132	89877009	0.209802	0.139924	9.339419				0.000518	0.000354	0.023349	1.000000	-0.000097	-0.000141	-0.000088	0.685110	0.007032	0.002429	0.728402	0.754847	-0.396313	93.505921	-0.061150	0.998105	0.006917	-0.998036	-0.061237	0.013174	0.013572	-0.006098	0.999889
55133	89877034	0.260122	0.144679	9.298595	0.392011	-0.041455	-0.932824	0.000644	0.000366	0.023247	1.000000	-0.000089	-0.000133	-0.000069	0.685161	0.007068	0.002273	0.728354	0.744699	-0.411474	93.497881	-0.061010	0.998111	0.007182	-0.998047	-0.061099	0.012997	0.013411	-0.006375	0.999890
55134	89877059	0.254915	0.157893	9.253251				0.000631	0.000399	0.023133	1.000000	-0.000093	-0.000128	-0.000064	0.685208	0.007098	0.002118	0.728309	0.734110	-0.426030	93.490348	-0.060878	0.998117	0.007436	-0.998057	-0.060970	0.012812	0.013241	-0.006641	0.999890
55135	89877084	0.227331	0.172141	9.231095				0.000564	0.000435	0.023078	1.000000	-0.000096	-0.000088	-0.000085	0.685259	0.007153	0.002002	0.728262	0.728810	-0.439667	93.482338	-0.060739	0.998124	0.007674	-0.998067	-0.060833	0.012719	0.013162	-0.006886	0.999890
55136	89877109	0.145604	0.185762	9.234616				0.000361	0.000467	0.023087	1.000000	-0.000067	-0.000077	-0.000091	0.685325	0.007163	0.001901	0.728200	0.721173	-0.448410	93.471840	-0.060556	0.998134	0.007826	-0.998080	-0.060652	0.012586	0.013037	-0.007049	0.999890
55137	89877134	0.087282	0.199521	9.224574	0.390049	-0.039455	-0.933282	0.000215	0.000502	0.023061	1.000000	-0.000062	-0.000077	-0.000103	0.685400	0.007177	0.001804	0.728129	0.714202	-0.457127	93.459975	-0.060349	0.998145	0.007978	-0.998094	-0.060446	0.012464	0.012924	-0.007211	0.999891
55138	89877159	0.033570	0.240848	9.229556				0.000081	0.000603	0.023074	1.000000	-0.000029	-0.000068	-0.000105	0.685477	0.007206	0.001737	0.728056	0.711025	-0.464769	93.447847	-0.060138	0.998157	0.008112	-0.998107	-0.060236	0.012409	0.012875	-0.007350	0.999890
55139	89877184	0.013598	0.278111	9.234798				0.000033	0.000697	0.023087	1.000000	-0.000035	-0.000029	-0.000105	0.685519	0.007229	0.001614	0.728017	0.702548	-0.476258	93.441315	-0.060024	0.998162	0.008312	-0.998116	-0.060123	0.012261	0.012738	-0.007561	0.999890
55140	89877209	0.026719	0.293320	9.232089				0.000067	0.000734	0.023080	1.000000	-0.000024	-0.000001	-0.000136	0.685618	0.007212	0.001597	0.727924	0.699894	-0.476147	93.425739	-0.059753	0.998179	0.008310	-0.998132	-0.059852	0.012215	0.012690	-0.007565	0.999891
55141	89877234	0.057459	0.319717	9.218491	0.390483	-0.039470	-0.934764	0.000144	0.000798	0.023046	1.000000	0.000028	0.000013	-0.000139	0.685719	0.007222	0.001627	0.727829	0.703212	-0.474434	93.409781	-0.059475	0.998195	0.008280	-0.998148	-0.059574	0.012273	0.012744	-0.007535	0.999890
55142	89877259	0.096106	0.345892	9.214567				0.000243	0.000864	0.023036	1.000000	0.000006	0.000047	-0.000148	0.685826	0.007191	0.001665	0.727728	0.704027	-0.468890	93.392907	-0.059181	0.998214	0.008184	-0.998166	-0.059279	0.012287	0.012750	-0.007441	0.999891
55143	89877284	0.131418	0.396800	9.237952				0.000331	0.000989	0.023095	1.000000	0.000059	0.000051	-0.000130	0.685884	0.007280	0.001649	0.727673	0.709769	-0.477418	93.383716	-0.059020	0.998222	0.008332	-0.998174	-0.059121	0.012387	0.012858	-0.007586	0.999888
55144	89877309	0.137397	0.428030	9.276298				0.000347	0.001068	0.023191	1.000000	0.000044	0.000079	-0.000102	0.685958	0.007253	0.001736	0.727603	0.714861	-0.468254	93.372146	-0.058819	0.998235	0.008172	-0.998185	-0.058918	0.012476	0.012935	-0.007424	0.999889
55145	89877334	0.126544	0.469648	9.313137	0.390006	-0.039462	-0.934766	0.000322	0.001172	0.023283	1.000000	0.000047	0.000108	-0.000129	0.686051	0.007206	0.001845	0.727515	0.720346	-0.455672	93.357498	-0.058564	0.998252	0.007953	-0.998199	-0.058661	0.012572	0.013016	-0.007202	0.999889
55146	89877359	0.060336	0.498641	9.381148				0.000157	0.001244	0.023453	1.000000	0.000060	0.000129	-0.000118	0.686136	0.007153	0.001978	0.727435	0.727354	-0.440772	93.344152	-0.058331	0.998267	0.007693	-0.998211	-0.058426	0.012694	0.013121	-0.006939	0.999890
55147	89877384	0.034967	0.526791	9.434378				0.000093	0.001314	0.023586	1.000000	0.000064	0.000121	-0.000100	0.686225	0.007157	0.002023	0.727352	0.731450	-0.437499	93.330219	-0.058089	0.998282	0.007636	-0.998224	-0.058183	0.012765	0.013188	-0.006881	0.999889
55148	89877409	0.053201	0.539413	9.501677				0.000140	0.001345	0.023754	1.000000	0.000064	0.000132	-0.000128	0.686317	0.007105	0.002161	0.727264	0.738861	-0.422142	93.315706	-0.057836	0.998299	0.007368	-0.998237	-0.057928	0.012895	0.013300	-0.006609	0.999890
55149	89877434	0.108231	0.571654	9.497826	0.391897	-0.039992	-0.935758	0.000277	0.001425	0.023745	1.000000	0.000082	0.000130	-0.000103	0.686391	0.007066	0.002310	0.727194	0.748360	-0.407097	93.304154	-0.057635	0.998312	0.007105	-0.998247	-0.057724	0.013061	0.013449	-0.006340	0.999889
55150	89877459	0.107422	0.569366	9.569147				0.000277	0.001418	0.023923	1.000000	0.000102	0.000169	-0.000088	0.686454	0.007013	0.002501	0.727135	0.760117	-0.387631	93.294342	-0.057464	0.998324	0.006765	-0.998254	-0.057549	0.013266	0.013633	-0.005991	0.999889
55151	89877484	0.116586	0.586874	9.574644				0.000299	0.001463	0.023937	1.000000	0.000093	0.000157	-0.000087	0.686533	0.006988	0.002630	0.727060	0.768908	-0.375356	93.281902	-0.057247	0.998338	0.006551	-0.998265	-0.057331	0.013419	0.013773	-0.005772	0.999888
55152	89877509	0.109336	0.616655	9.596438				0.000281	0.001537	0.023991	1.000000	0.000099	0.000150	-0.000077	0.686587	0.006947	0.002805	0.727008	0.780270	-0.358098	93.273366	-0.057099	0.998349	0.006250	-0.998271	-0.057179	0.013618	0.013952	-0.005462	0.999888
55153	89877534	0.101041	0.576308	9.677444	0.393368	-0.040504	-0.934773	0.000260	0.001436	0.024194	1.000000	0.000091	0.000159	-0.000036	0.686612	0.006894	0.002980	0.726985	0.790713	-0.339791	93.269537	-0.057032	0.998354	0.005930	-0.998272	-0.057109	0.013800	0.014116	-0.005133	0.999887
55154	89877559	0.103339	0.580568	9.709000				0.000267	0.001447	0.024273	1.000000	0.000093	0.000172	-0.000012	0.686620	0.006833	0.003166	0.726977	0.801406	-0.320101	93.268424	-0.057012	0.998357	0.005587	-0.998271	-0.057086	0.013986	0.014282	-0.004780	0.999886
55155	89877584	0.101211	0.543074	9.747497				0.000260	0.001353	0.024369	1.000000	0.000100	0.000145	-0.000024	0.686685	0.006830	0.003354	0.726915	0.816835	-0.305010	93.258126	-0.056833	0.998369	0.005323	-0.998278	-0.056904	0.014256	0.014535	-0.004504	0.999884
55156	89877609	0.083228	0.529165	9.795443				0.000215	0.001319	0.024489	1.000000	0.000071	0.000149	-0.000028	0.686705	0.006770	0.003508	0.726896	0.824987	-0.287931	93.255141	-0.056781	0.998374	0.005025	-0.998279	-0.056848	0.014398	0.014660	-0.004199	0.999883
55157	89877634	0.044920	0.534247	9.828071	0.394371	-0.041501	-0.933802	0.000120	0.001332	0.024570	1.000000	0.000082	0.000152	-0.000014	0.686714	0.006716	0.003672	0.726887	0.834358	-0.270461	93.253775	-0.056757	0.998376	0.004720	-0.998278	-0.056821	0.014562	0.014806	-0.003886	0.999882
55158	89877659	0.007439	0.498654	9.849880				0.000026	0.001243	0.024625	1.000000	0.000082	0.000155	-0.000004	0.686716	0.006660	0.003838	0.726885	0.843764	-0.252728	93.253593	-0.056754	0.998378	0.004411	-0.998276	-0.056814	0.014726	0.014952	-0.003568	0.999881
55159	89877684	-0.031505	0.513068	9.887957				-0.000070	0.001279	0.024720	1.000000	0.000082	0.000178	-0.000027	0.686734	0.006608	0.004050	0.726867	0.857358	-0.231657	93.250698	-0.056704	0.998383	0.004043	-0.998276	-0.056759	0.014963	0.015168	-0.003188	0.999880
55160	89877709	-0.021867	0.507820	9.933305				-0.000047	0.001266	0.024833	1.000000	0.000076	0.000143	-0.000037	0.686760	0.006555	0.004204	0.726842	0.866049	-0.215183	93.246723	-0.056635	0.998388	0.003756	-0.998277	-0.056686	0.015115	0.015303	-0.002893	0.999878
55161	89877734	-0.000955	0.500089	9.910163	0.396803	-0.041536	-0.932306	0.000004	0.001246	0.024776	1.000000	0.000079	0.000126	-0.000029	0.686780	0.006518	0.004347	0.726823	0.875092	-0.200750	93.243629	-0.056581	0.998391	0.003504	-0.998278	-0.056628	0.015273	0.015446	-0.002634	0.999877
55162	89877759	0.044677	0.510129	9.915932				0.000119	0.001272	0.024790	1.000000	0.000062	0.000139	-0.000065	0.686826	0.006460	0.004488	0.726779	0.882264	-0.184748	93.236487	-0.056456	0.998399	0.003224	-0.998283	-0.056499	0.015398	0.015555	-0.002350	0.999875
55163	89877784	0.091418	0.477133	9.920491				0.000235	0.001191	0.024801	1.000000	0.000040	0.000120	-0.000011	0.686784	0.006428	0.004635	0.726819	0.892003	-0.170581	93.243182	-0.056574	0.998394	0.002977	-0.998275	-0.056613	0.015568	0.015711	-0.002091	0.999874
55164	89877809	0.134756	0.473783	9.919441				0.000344	0.001182	0.024799	1.000000	0.000046	0.000138	-0.000001	0.686783	0.006359	0.004763	0.726819	0.897217	-0.154759	93.243328	-0.056576	0.998395	0.002701	-0.998273	-0.056612	0.015659	0.015786	-0.001810	0.999874
55165	89877834	0.109050	0.478685	9.921988	0.397791	-0.042534	-0.931829	0.000278	0.001195	0.024805	1.000000	0.000031	0.000115	-0.000009	0.686789	0.006296	0.004865	0.726813	0.900719	-0.141562	93.242543	-0.056563	0.998396	0.002471	-0.998273	-0.056595	0.015720	0.015834	-0.001577	0.999873
55166	89877859	0.085547	0.446973	9.919193				0.000218	0.001117	0.024798	1.000000	0.000005	0.000079	-0.000005	0.686792	0.006243	0.004923	0.726810	0.901323	-0.132508	93.242093	-0.056555	0.998397	0.002313	-0.998274	-0.056584	0.015730	0.015836	-0.001419	0.999874
55167	89877884	0.088384	0.424371	9.935738				0.000225	0.001060	0.024839	1.000000	0.000025	0.000090	0.000016	0.686816	0.006216	0.005096	0.726786	0.913659	-0.116626	93.238315	-0.056489	0.998401	0.002036	-0.998274	-0.056514	0.015946	0.016035	-0.001131	0.999871
55168	89877909	0.104065	0.404003	9.903002				0.000263	0.001011	0.024757	1.000000	-0.000012	0.000066	0.000007	0.686811	0.006159	0.005132	0.726792	0.912234	-0.109028	93.239278	-0.056506	0.998400	0.001903	-0.998274	-0.056529	0.015921	0.016003	-0.001000	0.999871
55169	89877934	0.081062	0.400586	9.889149	0.395368	-0.042992	-0.933337	0.000207	0.001003	0.024723	1.000000	-0.000035	0.000079	-0.000009	0.686817	0.006078	0.005161	0.726786	0.908261	-0.099968	93.238385	-0.056490	0.998402	0.001745	-0.998276	-0.056511	0.015851	0.015925	-0.000846	0.999873
55170	89877959	0.081770	0.395136	9.885036				0.000206	0.000990	0.024712	1.000000	-0.000044	0.000040	0.000018	0.686805	0.006019	0.005157	0.726799	0.903222	-0.095385	93.240469	-0.056527	0.998400	0.001665	-0.998275	-0.056546	0.015764	0.015832	-0.000771	0.999874
55171	89877984	0.071278	0.373003	9.849401				0.000181	0.000936	0.024623	1.000000	-0.000063	0.000052	0.000007	0.686810	0.005969	0.005220	0.726794	0.904562	-0.086259	93.239738	-0.056514	0.998401	0.001505	-0.998276	-0.056531	0.015787	0.015847	-0.000611	0.999874
55172	89878009	0.029287	0.379209	9.851820				0.000075	0.000951	0.024629	1.000000	-0.000060	0.000042	-0.000008	0.686816	0.005896	0.005206	0.726789	0.897650	-0.081379	93.238896	-0.056499	0.998401	0.001420	-0.998279	-0.056514	0.015666	0.015722	-0.000533	0.999876
55173	89878034	0.019608	0.374777	9.839431	0.396262	-0.042031	-0.934794	0.000052	0.000940	0.024598	1.000000	-0.000064	0.000070	0.000006	0.686811	0.005801	0.005207	0.726794	0.890296	-0.073337	93.239719	-0.056513	0.998401	0.001280	-0.998280	-0.056527	0.015538	0.015585	-0.000400	0.999878
55174	89878059	0.018516	0.384102	9.803739				0.000049	0.000964	0.024509	1.000000	-0.000069	0.000062	-0.000019	0.686825	0.005709	0.005199	0.726782	0.882371	-0.066227	93.237698	-0.056478	0.998403	0.001156	-0.998284	-0.056489	0.015400	0.015440	-0.000284	0.999881
55175	89878084	-0.023790	0.399200	9.796553				-0.000056	0.001002	0.024491	1.000000	-0.000085	0.000078	-0.000021	0.686808	0.005653	0.005205	0.726798	0.878447	-0.061157	93.240382	-0.056525	0.998401	0.001067	-0.998283	-0.056535	0.015331	0.015367	-0.000199	0.999882
55176	89878109	-0.019997	0.417867	9.774579				-0.000046	0.001050	0.024436	1.000000	-0.000105	0.000086	0.000000	0.686808	0.005518	0.005188	0.726799	0.866408	-0.051272	93.240555	-0.056528	0.998400	0.000895	-0.998286	-0.056535	0.015121	0.015147	-0.000039	0.999885
55177	89878134	-0.028754	0.465079	9.792202	0.396260	-0.039562	-0.933251	-0.000069	0.001168	0.024480	1.000000	-0.000098	0.000068	-0.000025	0.686827	0.005401	0.005163	0.726783	0.855129	-0.043448	93.237779	-0.056480	0.998403	0.000758	-0.998292	-0.056485	0.014924	0.014943	0.000086	0.999888
55178	89878159	-0.047341	0.529157	9.780903				-0.000115	0.001328	0.024452	1.000000	-0.000109	0.000069	-0.000015	0.686838	0.005276	0.005131	0.726773	0.842630	-0.035541	93.236175	-0.056452	0.998405	0.000620	-0.998297	-0.056455	0.014706	0.014718	0.000211	0.999891
55179	89878184	-0.046460	0.542846	9.789097				-0.000112	0.001362	0.024472	1.000000	-0.000106	0.000087	-0.000015	0.686846	0.005199	0.005149	0.726766	0.837975	-0.027722	93.235008	-0.056432	0.998406	0.000484	-0.998299	-0.056433	0.014625	0.014629	0.000342	0.999893
55180	89878209	-0.006509	0.590511	9.778251				-0.000012	0.001482	0.024445	1.000000	-0.000109	0.000087	-0.000025	0.686864	0.005060	0.005129	0.726750	0.825453	-0.017658	93.232249	-0.056383	0.998409	0.000308	-0.998305	-0.056382	0.014406	0.014401	0.000505	0.999896
