// Start Time: Unknown
// Update Rate: Various
// Filter Profile: general (39.15)
// Option Flags: AHS Disabled ICC Disabled 
// Firmware Version: 1.10.0
PacketCounter	SampleTimeFine	Acc_X	Acc_Y	Acc_Z	Gyr_X	Gyr_Y	Gyr_Z	Mag_X	Mag_Y	Mag_Z	Roll	Pitch	Yaw
40649	13447858	0.036172	0.043216	9.823447	0.002080	0.002998	0.003609	0.269055	-0.254082	-0.966695	-0.468733	0.088229	65.912044
40653	13447883	0.055357	0.025918	9.823633	-0.008976	0.001571	-0.010538				-0.470021	0.088442	65.910535
40656	13447908	0.050674	0.030334	9.863366	0.012231	0.019208	0.016056				-0.465919	0.087797	65.913832
40660	13447933	0.051131	0.035445	9.841400	-0.008030	-0.002950	0.011745				-0.467067	0.087388	65.915519
40663	13447958	0.044908	0.019161	9.812616	0.011110	-0.006649	0.000647	0.269981	-0.254103	-0.967681	-0.465475	0.086437	65.915624
40667	13447983	0.041969	0.006830	9.830469	-0.004865	0.005023	0.003451				-0.466171	0.087160	65.916118
40670	13448008	0.070331	0.012865	9.832003	-0.005494	0.008097	0.000490				-0.464248	0.085884	65.914123
40674	13448033	0.074402	0.014298	9.816946	0.007486	0.008343	0.000501				-0.463176	0.087080	65.914177
40677	13448058	0.041956	0.020270	9.822180	-0.015318	0.005330	0.008935	0.269503	-0.254095	-0.967683	-0.465368	0.087854	65.915452
40681	13448083	0.032130	0.040406	9.828919	-0.004861	-0.003797	-0.005993				-0.466066	0.087303	65.914607
40684	13448108	0.045766	0.024362	9.844149	-0.019042	-0.005120	0.008449				-0.465489	0.085927	65.917167
40688	13448133	0.063500	0.024892	9.825068	-0.001839	0.000155	0.008886				-0.465751	0.085959	65.918440
40691	13448158	0.045959	0.004503	9.835984	0.004527	0.012681	0.010683	0.269990	-0.254595	-0.967692	-0.465100	0.087788	65.919966
40695	13448183	0.037776	0.023071	9.846830	-0.004220	-0.007682	-0.001813				-0.465705	0.086686	65.919706
40698	13448208	0.044514	0.024548	9.816702	0.000058	0.011078	-0.013445				-0.462492	0.086881	65.917146
40702	13448233	0.034475	0.058157	9.823386	0.020343	0.010571	-0.018650				-0.459582	0.088374	65.914463
40705	13448258	0.047080	0.019118	9.838682	-0.011241	-0.000158	0.007385	0.268557	-0.254570	-0.967699	-0.461191	0.088360	65.915519
40709	13448283	0.049730	0.025738	9.812626	-0.006591	0.022264	-0.009282				-0.462137	0.091538	65.914174
40712	13448308	0.067742	0.020530	9.831955	-0.024562	-0.001714	0.010423				-0.462010	0.085098	65.916753
40716	13448333	0.061595	0.055702	9.846902	-0.009859	-0.009416	0.002447				-0.463422	0.083752	65.917114
40719	13448358	0.044266	0.027352	9.840014	0.005530	0.011216	-0.002943	0.269489	-0.254097	-0.968178	-0.462631	0.085355	65.916675
40723	13448383	0.037450	0.039133	9.827579	-0.010017	0.001502	0.013807				-0.464063	0.085586	65.918663
40726	13448408	0.035245	0.012372	9.842740	0.001420	-0.012870	0.010584				-0.460069	0.084774	65.916802
40730	13448433	0.049799	0.024784	9.834578	0.008723	0.011413	-0.004363				-0.458821	0.086404	65.916164
40733	13448458	0.060449	0.042277	9.819503	0.000042	0.008640	0.010182	0.269494	-0.253602	-0.967671	-0.458813	0.087653	65.917614
40737	13448483	0.037559	0.029976	9.824878	0.017509	0.010371	0.003643				-0.456304	0.089143	65.918126
40740	13448508	0.052582	0.031302	9.830457	-0.011110	-0.009330	0.024995				-0.458529	0.084648	65.923179
40744	13448533	0.065486	0.042406	9.829138	0.006454	0.029188	0.001432				-0.457604	0.088831	65.923361
40747	13448558	0.042791	0.029774	9.833135	-0.003603	0.012305	-0.004904	0.268568	-0.253581	-0.966686	-0.458121	0.090588	65.922630
40751	13448583	0.025560	0.013461	9.831693	0.000325	0.015709	-0.001992				-0.458076	0.092835	65.922334
40754	13448608	0.031029	0.010991	9.839972	0.000203	0.013863	-0.008623				-0.452284	0.092124	65.921884
40758	13448633	0.051451	0.012299	9.822268	-0.010827	0.007516	-0.001024				-0.453835	0.093200	65.921729
40761	13448658	0.056456	0.027386	9.841463	-0.006872	0.015798	0.002815	0.269023	-0.251618	-0.966143	-0.454818	0.095466	65.922112
40765	13448683	0.062028	0.028828	9.833266	-0.003535	0.006373	-0.007363				-0.455327	0.096370	65.921048
40768	13448708	0.043069	0.019160	9.844142	-0.008868	0.002447	-0.011690				-0.452744	0.096122	65.920121
40772	13448733	0.043477	0.018980	9.838651	-0.009118	-0.010943	0.003189				-0.454049	0.094558	65.920591
40775	13448758	0.043319	0.025740	9.826297	-0.012717	-0.012521	0.003679	0.269948	-0.253120	-0.968152	-0.455870	0.092769	65.921137
40779	13448783	0.058095	0.015416	9.851116	-0.003913	-0.002615	-0.019746				-0.456435	0.092372	65.918311
40782	13448808	0.040310	0.012308	9.831800	-0.004601	0.017723	0.000650				-0.453736	0.094284	65.920136
40786	13448833	0.039204	0.006989	9.840037	0.006936	0.011313	0.006115				-0.452741	0.095911	65.920989
40789	13448858	0.048806	0.005675	9.840113	-0.008118	-0.004166	0.018454	0.269011	-0.254089	-0.968180	-0.453899	0.095335	65.923644
40793	13448883	0.045894	0.017717	9.823586	-0.008363	0.013180	0.004040				-0.455096	0.097228	65.924205
40796	13448908	0.023960	0.025580	9.835770	0.002515	0.015520	-0.015822				-0.450808	0.095214	65.918532
40800	13448933	0.038989	0.028535	9.829008	0.006616	0.000887	-0.007200				-0.449862	0.095333	65.917498
40803	13448958	0.024642	0.001254	9.826249	-0.005397	-0.002711	0.031517	0.269022	-0.253099	-0.967167	-0.450628	0.094980	65.922009
40807	13448983	0.040639	0.006902	9.829074	-0.004607	0.000960	0.000028				-0.451288	0.095117	65.922014
40810	13449008	0.043439	0.013704	9.819468	-0.000294	0.013863	-0.019014				-0.448572	0.096908	65.919798
40814	13449033	0.048675	0.015253	9.834592	0.007306	-0.006357	0.004900				-0.447525	0.096003	65.920514
40817	13449058	0.037813	0.006868	9.829063	0.000790	0.011651	-0.000696	0.269013	-0.252607	-0.967156	-0.447412	0.097671	65.920396
40821	13449083	0.001399	-0.008411	9.859037	-0.003892	0.004686	-0.004616				-0.447970	0.098338	65.919735
40824	13449108	0.046028	0.019019	9.824963	-0.019185	0.002877	0.005341				-0.447521	0.096299	65.921079
40828	13449133	0.017654	0.015926	9.828896	-0.009501	-0.003646	-0.017306				-0.448886	0.095757	65.918602
40831	13449158	0.039290	0.012329	9.831792	-0.000912	-0.000209	-0.017759	0.269970	-0.255092	-0.968693	-0.449021	0.095707	65.916062
40835	13449183	0.050171	0.008548	9.844219	0.003336	-0.001524	-0.014019				-0.448546	0.095473	65.914056
40838	13449208	0.026742	0.017367	9.831698	-0.006431	0.012918	-0.013617				-0.447207	0.096281	65.913433
40842	13449233	0.007647	0.035946	9.830118	-0.007106	0.008257	0.002094				-0.448225	0.097466	65.913719
40845	13449258	0.047315	0.019285	9.835951	0.002499	-0.008774	-0.008015	0.270486	-0.255588	-0.967713	-0.447869	0.096201	65.912594
40849	13449283	0.057148	-0.004711	9.840207	0.012007	-0.007962	-0.004105				-0.446150	0.095056	65.912009
40852	13449308	0.046209	0.004440	9.834612	0.006495	-0.001854	-0.005651				-0.443170	0.093769	65.909756
40856	13449333	0.028320	0.018796	9.839916	-0.004715	-0.002247	0.002119				-0.443845	0.093449	65.910076
40859	13449358	0.038036	0.016211	9.822172	-0.012943	-0.001548	-0.004274	0.270444	-0.254113	-0.968173	-0.445700	0.093223	65.909462
40863	13449383	0.030105	-0.012227	9.829068	-0.005911	0.001279	0.000106				-0.446546	0.093406	65.909480
40866	13449408	0.032546	0.010953	9.834504	0.006440	-0.004435	-0.000745				-0.439764	0.089516	65.908796
40870	13449433	0.057085	-0.000998	9.818239	-0.004256	0.012301	-0.005229				-0.440375	0.091272	65.908034
40873	13449458	0.017301	0.029506	9.821999	0.007343	0.004442	0.000560	0.269044	-0.255071	-0.967708	-0.439323	0.091909	65.908112
40877	13449483	0.055490	0.028435	9.822245	-0.017333	-0.005265	-0.003427				-0.441807	0.091151	65.907625
40880	13449508	0.006311	0.025347	9.835641	0.013706	0.006796	-0.015248				-0.434918	0.091123	65.905935
40884	13449533	0.052714	0.012489	9.833248	-0.005047	0.009966	-0.004752				-0.435642	0.092545	65.905246
40887	13449558	0.060823	0.016632	9.830552	-0.005762	0.003305	-0.003050	0.269596	-0.257537	-0.966774	-0.436468	0.093015	65.904810
40891	13449583	0.029006	0.001121	9.813927	-0.015245	-0.011265	0.016436				-0.438648	0.091420	65.907166
40894	13449608	0.044715	0.010961	9.826356	-0.005087	-0.000930	0.007154				-0.436387	0.090207	65.905331
40898	13449633	0.055701	0.023201	9.820895	-0.001761	-0.010701	0.007778				-0.436637	0.088682	65.906456
40901	13449658	0.045920	0.024379	9.829062	-0.009505	-0.002962	-0.013813	0.269544	-0.257051	-0.968247	-0.438002	0.088243	65.904478
40905	13449683	0.044547	0.017900	9.823586	0.010456	0.007816	-0.006370				-0.436505	0.089355	65.903558
40908	13449708	0.048522	0.012346	9.834602	-0.007702	0.024322	-0.005658				-0.437995	0.088199	65.905990
40912	13449733	0.068792	0.024735	9.833325	-0.020833	0.002579	0.005417				-0.440978	0.088575	65.906770
40915	13449758	0.048699	0.019197	9.834587	-0.005771	-0.005221	-0.025091	0.269019	-0.256063	-0.969216	-0.441810	0.087799	65.903177
40919	13449783	0.047465	0.011053	9.829110	-0.010264	-0.003228	0.015447				-0.443277	0.087354	65.905404
40922	13449808	0.062092	0.021073	9.833289	0.017101	0.013757	0.001894				-0.434573	0.088958	65.902483
40926	13449833	0.052092	0.050095	9.829018	-0.015391	0.010291	-0.000145				-0.436778	0.090432	65.902460
40929	13449858	0.058128	0.019313	9.819555	0.003602	0.003551	-0.011551	0.269035	-0.254579	-0.967697	-0.436265	0.090928	65.900803
40933	13449883	0.048143	0.047328	9.839972	-0.014280	-0.001037	-0.009513				-0.438312	0.090769	65.899436
40936	13449908	0.029690	0.008104	9.841341	-0.007093	0.004344	0.007275				-0.435456	0.089185	65.904027
40940	13449933	0.045712	0.032590	9.829039	-0.001045	0.000447	-0.002611				-0.435606	0.089246	65.903657
40943	13449958	0.041860	0.025963	9.848229	0.002351	-0.012369	-0.011837	0.269957	-0.253613	-0.968164	-0.435272	0.087462	65.901983
40947	13449983	0.044512	0.027087	9.824922	-0.015931	-0.000973	-0.006485				-0.437556	0.087315	65.901054
40950	13450008	0.035016	0.036371	9.820711	-0.007026	-0.000675	0.000647				-0.435036	0.085280	65.900682
40954	13450033	0.044549	0.027089	9.831786	-0.009070	-0.006583	-0.010526				-0.436338	0.084325	65.899192
40957	13450058	0.019768	0.042494	9.821966	-0.029285	0.001591	0.001620	0.270446	-0.252632	-0.967149	-0.440532	0.084555	65.899427
40961	13450083	0.052692	0.028458	9.822239	-0.014399	-0.000785	0.006263				-0.442593	0.084449	65.900320
40964	13450108	0.026485	0.030950	9.831639	-0.007810	0.025664	0.022832				-0.440639	0.086183	65.901728
40968	13450133	0.045309	0.058019	9.839911	-0.011431	0.000022	-0.011471				-0.442279	0.086174	65.900083
40971	13450158	0.046731	0.040567	9.844096	-0.016788	0.004230	-0.019449	0.269996	-0.254101	-0.967186	-0.444688	0.086758	65.897299
40975	13450183	0.052423	0.036821	9.830422	-0.000131	0.008452	-0.000556				-0.444707	0.087968	65.897207
40978	13450208	0.047208	0.021899	9.834558	0.000955	-0.003220	-0.003678				-0.443322	0.084261	65.897670
40982	13450233	0.037394	0.032612	9.834463	0.008827	0.014839	-0.003178				-0.442058	0.086382	65.897194
40985	13450258	0.060627	0.035446	9.818150	-0.007342	0.002755	-0.003317	0.269494	-0.253602	-0.967671	-0.443110	0.086773	65.896712
40989	13450283	0.048268	0.044990	9.845469	0.006601	-0.008704	0.006245				-0.442163	0.085534	65.897624
40992	13450308	0.045538	0.059582	9.834430	0.001824	-0.021240	0.016969				-0.439573	0.083033	65.899055
40996	13450333	0.052333	0.048876	9.819424	0.001249	0.000493	0.001743				-0.439393	0.083106	65.899296
40999	13450358	0.049700	0.041971	9.820790	-0.007421	0.002830	-0.004123	0.270454	-0.254606	-0.968185	-0.440457	0.083506	65.898701
41003	13450383	0.022281	0.045661	9.838428	-0.002287	0.017606	-0.013262				-0.440788	0.086013	65.896784
41006	13450408	0.051098	0.031112	9.815350	-0.013970	0.008756	-0.013302				-0.438221	0.081578	65.897699
41010	13450433	0.038950	0.044701	9.833060	0.001621	-0.008632	0.005725				-0.437988	0.080348	65.898533
41013	13450458	0.032421	0.036363	9.820704	-0.003752	-0.020733	-0.007221	0.269494	-0.253602	-0.967671	-0.438527	0.077371	65.897509
41017	13450483	0.042473	0.062224	9.838508	0.007655	-0.006436	0.006156				-0.437429	0.076455	65.898405
41020	13450508	0.051062	0.030139	9.835936	0.004049	0.007354	0.006939				-0.434983	0.079012	65.896623
41024	13450533	0.060711	0.030050	9.827764	-0.008862	0.002746	-0.004108				-0.436253	0.079401	65.896036
41027	13450558	0.042835	0.048663	9.837192	-0.003999	-0.010993	0.007641	0.267996	-0.251613	-0.968622	-0.436824	0.077835	65.897144
41031	13450583	0.053485	0.042153	9.834537	-0.011653	0.014232	-0.004277				-0.438494	0.079868	65.896510
41034	13450608	0.048458	0.031176	9.834535	-0.010717	-0.001368	0.019257				-0.433963	0.074816	65.900797
41038	13450633	0.045852	0.036518	9.824908	-0.008667	-0.006302	-0.021462				-0.435208	0.073890	65.897728
41041	13450658	0.034892	0.034783	9.828951	-0.021930	-0.003381	-0.000276	0.266546	-0.253072	-0.970148	-0.438350	0.073406	65.897694
41045	13450683	0.062063	0.030052	9.830523	-0.012971	-0.005953	-0.012648				-0.440210	0.072539	65.895891
41048	13450708	0.057703	0.036971	9.837328	-0.013134	0.018941	0.003971				-0.438605	0.076230	65.897590
41052	13450733	0.028236	0.045751	9.802816	0.009869	-0.004700	-0.007614				-0.437193	0.075549	65.896500
41055	13450758	0.034913	0.014970	9.860563	-0.002068	-0.003745	-0.011578	0.267520	-0.254073	-0.970167	-0.437491	0.075000	65.894852
41059	13450783	0.025387	0.022758	9.850872	-0.010151	0.000162	-0.005449				-0.438946	0.075017	65.894066
41062	13450808	0.052220	0.043362	9.834519	-0.023793	0.004578	-0.003442				-0.439465	0.072858	65.892545
41066	13450833	0.055213	0.039617	9.826338	0.002345	-0.001988	0.004768				-0.439128	0.072578	65.893236
41069	13450858	0.079615	0.021069	9.830668	0.006641	0.018585	-0.013025	0.268012	-0.254079	-0.969669	-0.438179	0.075226	65.891345
41073	13450883	0.044174	0.047468	9.833096	0.006993	-0.001737	0.000842				-0.437177	0.074978	65.891466
41076	13450908	0.048975	0.012331	9.823630	-0.012128	-0.011799	0.014938				-0.438073	0.071642	65.892716
41080	13450933	0.048326	0.027298	9.824957	0.007808	0.014669	0.018437				-0.436951	0.073763	65.895333
41083	13450958	0.036286	0.033805	9.822112	0.002508	0.001726	-0.010082	0.268930	-0.253608	-0.970643	-0.436594	0.073999	65.893897
41087	13450983	0.066153	0.014078	9.831962	-0.004470	0.017522	-0.014915				-0.437237	0.076493	65.891736
41090	13451008	0.077101	0.012856	9.832050	-0.005685	0.008377	-0.011122				-0.433112	0.073012	65.892373
41094	13451033	0.038286	0.020280	9.801583	-0.007181	-0.010514	0.008266				-0.434139	0.071515	65.893576
41097	13451058	0.040267	0.015137	9.838655	0.004506	0.014111	-0.002678	0.268886	-0.253615	-0.972127	-0.433494	0.073533	65.893172
41101	13451083	0.060839	0.016522	9.818210	-0.009941	0.010180	0.008146				-0.434916	0.075000	65.894324
41104	13451108	0.034263	0.000145	9.805751	0.006396	0.001597	-0.001177				-0.429926	0.074326	65.890808
41108	13451133	0.056905	0.008647	9.822329	0.004838	0.010422	0.005855				-0.429232	0.075825	65.891627
41111	13451158	0.041873	0.021869	9.826297	0.006290	0.000939	-0.006603	0.268422	-0.255086	-0.972659	-0.428332	0.075953	65.890685
41115	13451183	0.042886	0.016545	9.845532	0.010382	0.013556	0.000514				-0.426845	0.077895	65.890749
41118	13451208	0.073029	0.021051	9.810052	0.006063	0.020373	0.006354				-0.425592	0.078416	65.892737
41122	13451233	0.041818	0.028573	9.833134	0.003815	-0.003876	-0.001076				-0.425046	0.077860	65.892587
41125	13451258	0.030837	0.029819	9.846771	-0.001717	-0.005713	0.002317	0.268461	-0.254092	-0.970657	-0.425291	0.077044	65.892929
41129	13451283	0.020107	0.008157	9.835792	0.007661	0.012298	0.017831				-0.424190	0.078824	65.895466
41132	13451308	0.041610	0.033879	9.831744	0.004579	0.006531	-0.000505				-0.419855	0.077992	65.892903
41136	13451333	0.036366	0.025603	9.813900	-0.013947	0.006551	0.008370				-0.421851	0.078939	65.894093
41139	13451358	0.047287	0.024400	9.841412	-0.009835	-0.007160	-0.012462	0.269891	-0.253130	-0.970132	-0.423262	0.077900	65.892309
41143	13451383	0.022408	0.034722	9.826120	-0.016876	0.015908	0.004192				-0.425679	0.080183	65.892896
41146	13451408	0.029459	0.025666	9.830310	0.001740	0.011784	0.004785				-0.418619	0.079444	65.895530
41150	13451433	0.026796	0.030928	9.822047	-0.002427	0.008382	0.007232				-0.418965	0.080652	65.896547
41153	13451458	0.033350	0.025790	9.841312	0.002366	0.012532	-0.000457	0.269369	-0.253128	-0.971619	-0.418627	0.082447	65.896473
41157	13451483	0.030762	0.020446	9.842689	0.010249	0.010172	0.000656				-0.417158	0.083905	65.896554
41160	13451508	0.027066	0.020081	9.824819	-0.010945	-0.007021	-0.009376				-0.419321	0.081787	65.895730
41164	13451533	0.013445	0.013159	9.831614	-0.001292	0.002709	-0.018045				-0.419509	0.082156	65.893142
41167	13451558	0.012316	0.017357	9.821999	0.007533	-0.010481	0.006776	0.268409	-0.253606	-0.972130	-0.418429	0.080662	65.894125
41171	13451583	0.014616	0.026778	9.831583	0.004040	0.005361	0.022298				-0.417846	0.081453	65.897303
41174	13451608	0.022780	0.040211	9.827471	-0.004546	-0.008969	-0.005652				-0.414322	0.078904	65.893393
41178	13451633	0.022035	0.011667	9.809737	-0.014707	-0.014302	0.006233				-0.416427	0.076862	65.894304
41181	13451658	0.056464	0.032723	9.824998	-0.006257	0.002912	0.010897	0.269398	-0.253124	-0.970629	-0.417321	0.077290	65.895859
41185	13451683	0.027045	0.014547	9.839929	-0.023614	-0.008102	-0.005886				-0.420705	0.076124	65.895023
41188	13451708	0.026952	0.027019	9.823442	0.003459	-0.001869	0.012331				-0.412949	0.075902	65.900772
41192	13451733	0.033698	0.012420	9.830391	0.011538	0.004192	-0.011472				-0.411299	0.076491	65.899125
41195	13451758	0.029536	0.013428	9.826244	0.001882	0.023714	-0.005113	0.270372	-0.254125	-0.970647	-0.411030	0.079882	65.898375
41199	13451783	0.020258	0.038677	9.821981	-0.014563	-0.018860	0.000207				-0.413116	0.077181	65.898416
41202	13451808	0.028080	0.021488	9.837170	-0.006306	0.015983	-0.010420				-0.412029	0.079071	65.896000
41206	13451833	0.058205	0.019348	9.838759	-0.008166	-0.007536	0.012295				-0.413196	0.078004	65.897767
41209	13451858	0.047479	-0.005124	9.849739	-0.015481	-0.003560	-0.010566	0.269455	-0.254596	-0.969674	-0.415416	0.077484	65.896261
41213	13451883	0.060745	0.034285	9.834612	-0.002125	-0.000776	0.003514				-0.415719	0.077376	65.896756
41216	13451908	0.045987	0.021812	9.822220	-0.001583	-0.003242	0.005324				-0.414439	0.072401	65.897077
41220	13451933	0.047039	0.016467	9.853782	-0.009541	0.009446	-0.010441				-0.415807	0.073743	65.895568
41223	13451958	0.049710	0.016666	9.841450	-0.001611	0.015761	0.011502	0.269478	-0.255086	-0.969191	-0.416036	0.076012	65.897191
41227	13451983	0.043109	0.025742	9.831780	-0.001538	0.005187	-0.005567				-0.416257	0.076750	65.896394
41230	13452008	0.044448	0.008406	9.846921	-0.005271	0.016180	0.000650				-0.413807	0.076300	65.897738
41234	13452033	0.044378	0.028694	9.841381	0.013514	-0.002337	-0.016962				-0.411874	0.075947	65.895314
41237	13452058	0.053790	0.016406	9.856562	-0.020269	0.018243	-0.010809	0.268948	-0.254592	-0.970666	-0.414780	0.078549	65.893742
41241	13452083	0.059196	0.029920	9.831873	-0.018777	0.008580	-0.010118				-0.417471	0.079768	65.892278
41244	13452108	0.044015	0.035269	9.820780	-0.007020	0.025824	-0.004144				-0.412721	0.081058	65.892330
41248	13452133	0.056540	0.034233	9.815391	0.008084	0.012916	-0.004239				-0.411563	0.082903	65.891706
41251	13452158	0.044868	0.008364	9.833217	0.001022	-0.004274	0.000486	0.267940	-0.254090	-0.972144	-0.411417	0.082292	65.891773
41255	13452183	0.059289	0.026081	9.825034	0.006732	0.011629	0.001751				-0.410452	0.083959	65.892019
41258	13452208	0.067237	0.034413	9.833288	0.004615	0.001903	0.018434				-0.410157	0.081878	65.892967
41262	13452233	0.054007	0.029937	9.812643	0.000112	0.008525	-0.005654				-0.410142	0.083093	65.892146
41265	13452258	0.034942	0.039320	9.830306	0.007692	-0.001064	-0.004667	0.267430	-0.253100	-0.972618	-0.409041	0.082936	65.891478
41269	13452283	0.044820	0.020490	9.815346	-0.000118	-0.007202	-0.004461				-0.409059	0.081900	65.890850
41272	13452308	0.037959	0.008180	9.826315	-0.002861	0.000134	-0.005412				-0.405201	0.082692	65.890966
41276	13452333	0.053203	0.002927	9.819584	-0.007971	-0.012603	0.004923				-0.406341	0.080892	65.891681
41279	13452358	0.037745	0.001427	9.834565	-0.004710	0.018302	0.006016	0.268834	-0.253129	-0.973601	-0.407015	0.083520	65.892533
41283	13452383	0.039303	0.014991	9.833150	-0.016011	-0.008976	-0.002293				-0.409309	0.082232	65.892209
41286	13452408	0.047215	0.012243	9.834578	-0.014308	0.013262	0.001448				-0.405797	0.082460	65.892093
41290	13452433	0.052480	0.027376	9.838684	-0.004785	0.010024	0.011003				-0.406480	0.083907	65.893655
41293	13452458	0.059316	0.008646	9.833321	0.000586	0.015116	-0.002526	0.269339	-0.254614	-0.973633	-0.406397	0.086070	65.893281
41297	13452483	0.047158	0.033888	9.816689	-0.003287	0.007363	0.002955				-0.406867	0.087127	65.893692
41300	13452508	0.056593	0.011080	9.833290	-0.010914	0.008546	0.005469				-0.406969	0.084086	65.893720
41304	13452533	0.047182	0.027341	9.827685	0.003879	0.004151	-0.006871				-0.406415	0.084673	65.892736
41307	13452558	0.041822	0.017880	9.841405	0.003089	-0.007157	-0.004546	0.268852	-0.254114	-0.973624	-0.405974	0.083644	65.892101
41311	13452583	0.036389	0.013902	9.842749	0.015616	0.015984	0.002956				-0.403736	0.085936	65.892500
41314	13452608	0.030869	0.016397	9.834469	0.014815	0.009485	0.007345				-0.401037	0.084141	65.893553
41318	13452633	0.046239	-0.003710	9.836011	0.007157	-0.007424	-0.000137				-0.400012	0.083078	65.893537
41321	13452658	0.031101	0.030840	9.817953	-0.014324	-0.004339	-0.000238	0.267969	-0.254086	-0.971154	-0.402064	0.082456	65.893513
41325	13452683	0.044435	0.017697	9.840042	-0.011620	0.005101	-0.004715				-0.403730	0.083182	65.892824
41328	13452708	0.048598	0.017813	9.842802	-0.009277	0.005718	0.005811				-0.397873	0.083648	65.894726
41332	13452733	0.026951	0.006783	9.841318	-0.000033	0.011475	-0.018552				-0.397881	0.085274	65.892057
41335	13452758	0.037689	0.023091	9.845471	-0.004315	-0.005360	0.007431	0.268460	-0.255574	-0.971681	-0.398498	0.084513	65.893127
41339	13452783	0.037563	0.047337	9.834408	-0.002791	-0.010772	-0.018063				-0.398901	0.082952	65.890544
41342	13452808	0.043069	0.031429	9.835878	0.017262	-0.008637	0.012493				-0.394408	0.082090	65.894232
41346	13452833	0.029415	0.022882	9.838552	-0.001219	0.013806	0.004260				-0.394582	0.084072	65.894826
41349	13452858	0.035994	0.041882	9.837158	-0.008242	0.006668	0.020620	0.268470	-0.254584	-0.970668	-0.395758	0.085047	65.897769
41353	13452883	0.040136	0.029834	9.829004	0.000368	0.012973	0.008951				-0.395703	0.086914	65.899030
41356	13452908	0.033457	0.036452	9.828938	0.002083	0.005290	-0.004318				-0.392585	0.082315	65.894569
41360	13452933	0.042926	0.031139	9.842741	-0.008997	-0.001965	-0.018662				-0.393877	0.082015	65.891909
41363	13452958	0.043010	0.036467	9.826257	-0.012372	-0.001481	-0.009318	0.269417	-0.254108	-0.970652	-0.395651	0.081794	65.890562
41367	13452983	0.044314	0.039229	9.827632	-0.000371	-0.000906	-0.004755				-0.395705	0.081660	65.889883
41370	13453008	0.036614	0.017604	9.824902	-0.005725	-0.005758	0.001130				-0.393136	0.080914	65.891967
41374	13453033	0.037944	0.016395	9.855090	-0.001262	-0.012802	0.007033				-0.393316	0.079087	65.892988
41377	13453058	0.045531	0.039201	9.833123	-0.009342	0.008938	-0.021842	0.269360	-0.252636	-0.971607	-0.394658	0.080346	65.889858
41381	13453083	0.045601	0.032789	9.826286	0.005075	0.015119	-0.008260				-0.393933	0.082503	65.888651
41384	13453108	0.037622	0.016377	9.846860	-0.002305	0.002435	-0.003549				-0.391763	0.078633	65.888612
41388	13453133	0.037545	0.024515	9.838617	0.006783	0.010183	0.001478				-0.390791	0.080093	65.888814
41391	13453158	0.059014	0.028976	9.852448	-0.002298	0.019147	0.005259	0.268939	-0.254100	-0.970654	-0.391119	0.082841	65.889549
41395	13453183	0.037904	0.001597	9.848290	-0.002871	-0.000539	0.010355				-0.391529	0.082774	65.891030
41398	13453208	0.062000	0.032787	9.826400	-0.006777	0.010476	0.009273				-0.388084	0.084584	65.889654
41402	13453233	0.047005	0.039319	9.826273	-0.005202	-0.006115	-0.006792				-0.388830	0.083701	65.888687
41405	13453258	0.040850	0.024456	9.820804	0.000803	-0.026809	0.011432	0.268461	-0.254092	-0.970657	-0.388713	0.079872	65.890350
41409	13453283	0.031127	0.037605	9.816567	-0.003168	-0.024372	-0.006744				-0.389168	0.076375	65.889400
41412	13453308	0.067640	0.027507	9.816851	-0.011936	0.000446	0.000674				-0.387554	0.077945	65.891950
41416	13453333	0.041612	0.025628	9.837254	-0.015557	0.006948	0.006571				-0.389781	0.078947	65.892887
41419	13453358	0.045847	0.020443	9.827693	-0.010772	0.013338	-0.010578	0.267913	-0.252613	-0.972109	-0.391326	0.080847	65.891353
41423	13453383	0.047895	0.034324	9.830417	0.017905	0.029266	0.007801				-0.388759	0.085047	65.892440
41426	13453408	0.051370	0.020760	9.840083	0.012074	0.003280	-0.002351				-0.386774	0.075893	65.890047
41430	13453433	0.024095	0.034912	9.830254	-0.006977	-0.012991	-0.009649				-0.387775	0.074023	65.888678
41433	13453458	0.070347	0.017969	9.822388	-0.018431	0.002132	0.011708	0.268447	-0.254094	-0.971152	-0.390413	0.074340	65.890354
41437	13453483	0.051162	0.026019	9.834565	-0.000308	0.008991	-0.026654				-0.390462	0.075602	65.886522
41440	13453508	0.033536	0.039128	9.831667	-0.003920	-0.005111	0.018628				-0.385128	0.075900	65.894122
41444	13453533	0.071474	0.038199	9.830559	-0.017035	-0.005153	0.002538				-0.387567	0.075164	65.894497
41447	13453558	0.041332	0.024468	9.835884	0.000666	0.034055	-0.016616	0.268499	-0.254580	-0.969679	-0.387475	0.080026	65.892089
41451	13453583	0.067441	0.026266	9.837425	0.000677	0.002988	0.002016				-0.387378	0.080456	65.892367
41454	13453608	0.056144	0.061054	9.838611	-0.005534	-0.008820	0.001605				-0.385040	0.078102	65.888479
41458	13453633	0.054895	0.041043	9.842793	0.012635	0.001788	0.015974				-0.383227	0.078373	65.890762
41461	13453658	0.035994	0.036326	9.837171	-0.020400	0.007661	0.022690	0.267473	-0.253093	-0.971133	-0.386145	0.079492	65.893998
41465	13453683	0.035931	0.022871	9.839966	-0.007947	0.022011	0.007826				-0.387281	0.082653	65.895107
41468	13453708	0.037893	0.039038	9.812498	-0.017093	-0.014156	0.012487				-0.385216	0.075980	65.896079
41472	13453733	0.044120	0.054020	9.816605	-0.000159	-0.003089	0.020006				-0.385235	0.075557	65.898954
41475	13453758	0.033704	0.027049	9.842687	-0.001472	-0.010327	-0.009684	0.268414	-0.253112	-0.971623	-0.385448	0.074068	65.897577
41479	13453783	0.036024	0.048546	9.822059	0.003518	-0.000010	-0.007798				-0.384945	0.074059	65.896462
41482	13453808	0.041225	0.045734	9.849533	-0.025649	0.006486	0.010720				-0.386979	0.076242	65.900145
41486	13453833	0.030566	0.037721	9.837135	-0.010473	0.010213	0.015786				-0.388476	0.077721	65.902401
41489	13453858	0.031015	0.018898	9.844053	-0.002055	-0.001091	-0.007360	0.267980	-0.253097	-0.970141	-0.388772	0.077557	65.901347
41493	13453883	0.035180	0.019089	9.839980	0.004013	-0.015298	0.001381				-0.388197	0.075367	65.901566
41496	13453908	0.033774	0.032312	9.834437	-0.004417	-0.012258	-0.016977				-0.385628	0.073851	65.897803
41500	13453933	0.030807	0.032233	9.845394	-0.017215	-0.014666	0.005710				-0.388093	0.071756	65.898636
41503	13453958	0.040235	0.033859	9.826250	-0.006200	0.006437	-0.010189	0.267993	-0.254576	-0.970671	-0.388983	0.072668	65.897163
41507	13453983	0.045717	0.023209	9.840035	-0.006270	0.000283	0.014664				-0.389878	0.072723	65.899267
41510	13454008	0.040367	0.025335	9.834507	-0.024402	0.007351	-0.012970				-0.388628	0.069594	65.895494
41514	13454033	0.033626	0.009287	9.845485	-0.028306	0.009085	-0.003304				-0.392684	0.070892	65.895020
41517	13454058	0.012414	-0.004426	9.833038	-0.012521	0.003208	-0.007594	0.268957	-0.255085	-0.970678	-0.394479	0.071344	65.893928
41521	13454083	0.036565	0.019017	9.812553	0.000113	0.011979	-0.006679				-0.394464	0.073053	65.892965
41524	13454108	0.032499	0.028502	9.830323	0.014791	-0.019471	0.007705				-0.389979	0.066694	65.897088
41528	13454133	0.034014	0.006806	9.831780	-0.006120	-0.006445	-0.002621				-0.390856	0.065768	65.896731
41531	13454158	0.047192	0.035135	9.829040	-0.009827	-0.005025	-0.008783	0.268924	-0.254102	-0.971149	-0.392265	0.065040	65.895471
41535	13454183	0.046298	-0.004998	9.823675	-0.000864	0.008367	-0.005384				-0.392390	0.066233	65.894700
41538	13454208	0.033482	0.018930	9.826244	0.003409	0.022030	0.008436				-0.388486	0.067991	65.895704
41542	13454233	0.056544	0.039584	9.831839	0.003217	-0.005436	0.010611				-0.388023	0.067222	65.897229
41545	13454258	0.052865	0.015286	9.829140	-0.001559	-0.005148	-0.000969	0.269413	-0.253121	-0.970134	-0.388247	0.066484	65.897084
41549	13454283	0.060763	0.010038	9.837444	0.007696	0.006685	-0.014070				-0.387147	0.067428	65.895064
41552	13454308	0.028359	0.006679	9.822132	-0.012188	0.024566	0.015752				-0.386842	0.069288	65.898563
41556	13454333	0.043029	0.024908	9.844123	0.024422	0.002886	-0.004761				-0.383344	0.069697	65.897878
41559	13454358	0.040661	0.002793	9.830459	-0.009067	0.009011	-0.002122	0.268991	-0.254586	-0.969181	-0.384643	0.070985	65.897565
41563	13454383	0.035269	0.020298	9.833114	0.000376	-0.023545	0.009137				-0.384588	0.067622	65.898888
41566	13454408	0.044781	0.015060	9.820848	-0.001077	-0.001717	-0.004210				-0.380427	0.069757	65.894928
41570	13454433	0.024400	-0.002598	9.849572	0.003141	0.003462	-0.015390				-0.379980	0.070238	65.892721
41573	13454458	0.046844	0.036573	9.840000	-0.003198	0.003575	-0.010318	0.267080	-0.254553	-0.969191	-0.380440	0.070741	65.891235
41577	13454483	0.036340	0.010923	9.844114	-0.010248	0.009471	0.002038				-0.381907	0.072099	65.891512
41580	13454508	0.045772	0.014886	9.835938	-0.021483	0.023215	-0.002307				-0.380192	0.068777	65.892202
41584	13454533	0.055338	0.021821	9.800331	-0.004652	0.027189	-0.004490				-0.380859	0.072667	65.891541
41587	13454558	0.043248	-0.001160	9.841461	-0.015667	0.019448	-0.006750	0.267524	-0.255060	-0.970685	-0.383104	0.075447	65.890561
41591	13454583	0.046876	0.039435	9.846844	-0.003959	0.011660	-0.021815				-0.383675	0.077096	65.887415
41594	13454608	0.048257	0.032489	9.840014	-0.014317	-0.000012	0.007926				-0.383353	0.074889	65.891926
41598	13454633	0.040647	0.025606	9.829020	-0.016505	-0.018048	0.001629				-0.385716	0.072306	65.892177
41601	13454658	0.045607	0.026120	9.844148	0.013128	0.003032	0.002080	0.268465	-0.255079	-0.971175	-0.383836	0.072742	65.892475
41605	13454683	0.025176	0.035085	9.835739	0.005130	0.012851	-0.011812				-0.383103	0.074571	65.890775
41608	13454708	0.026720	0.025794	9.837150	0.020945	0.009702	-0.002421				-0.378139	0.073857	65.888993
41612	13454733	0.056602	0.031532	9.830486	0.004651	-0.003453	-0.002214				-0.377473	0.073360	65.888682
41615	13454758	0.052534	0.034086	9.830444	-0.001225	-0.005969	0.011709	0.267969	-0.254086	-0.971154	-0.377647	0.072516	65.890369
41619	13454783	0.056752	0.027519	9.841466	0.005065	-0.001812	-0.000952				-0.376921	0.072256	65.890234
41622	13454808	0.050019	0.018846	9.826358	-0.024781	-0.002384	0.001149				-0.377196	0.072083	65.888825
41626	13454833	0.043011	0.025929	9.823545	0.002451	0.010642	-0.003132				-0.376845	0.073605	65.888367
41629	13454858	0.042168	0.019082	9.824935	-0.004973	-0.021732	0.002255	0.267511	-0.253581	-0.970155	-0.377557	0.070494	65.888707
41633	13454883	0.061868	0.045972	9.816763	-0.019738	0.002253	-0.003991				-0.380385	0.070813	65.888134
41636	13454908	0.055357	0.039332	9.818101	-0.006589	-0.001299	0.003065				-0.374508	0.068128	65.888975
41640	13454933	0.058182	0.018026	9.825049	-0.002564	-0.008555	0.010118				-0.374874	0.066912	65.890432
41643	13454958	0.038826	0.024347	9.812561	0.000666	0.032328	-0.001179	0.269001	-0.255078	-0.969193	-0.374779	0.071542	65.890229
41647	13454983	0.038751	0.021916	9.842731	0.010729	0.019829	0.027391				-0.373237	0.074408	65.894132
41650	13455008	0.042862	0.024500	9.842749	-0.003690	0.016989	0.016473				-0.374866	0.072387	65.892009
41654	13455033	0.048293	0.033922	9.849615	-0.016911	-0.000034	0.001641				-0.377288	0.072384	65.892242
41657	13455058	0.055045	0.036770	9.831823	-0.001439	0.013369	0.006618	0.268494	-0.255074	-0.970185	-0.377493	0.074305	65.893186
41661	13455083	0.059272	0.022239	9.848362	0.005813	0.000420	-0.003506				-0.376661	0.074362	65.892683
41664	13455108	0.049977	0.012598	9.834613	0.009108	0.009035	-0.004831				-0.371382	0.076537	65.896401
41668	13455133	0.040224	0.024324	9.834507	-0.017300	0.012928	-0.016721				-0.373863	0.078373	65.893994
41671	13455158	0.046813	0.034087	9.841385	0.005788	0.020869	-0.001569	0.268928	-0.255089	-0.971667	-0.373035	0.081361	65.893746
41675	13455183	0.041473	0.028370	9.841355	-0.024313	0.008230	-0.004055				-0.376518	0.082536	65.893157
41678	13455208	0.055250	0.034087	9.819489	-0.000088	0.004238	-0.012685				-0.368953	0.080090	65.891437
41682	13455233	0.045752	0.027124	9.820816	-0.013907	0.012398	0.001849				-0.370945	0.081867	65.891692
41685	13455258	0.038908	0.038858	9.815244	-0.022811	0.009020	-0.012454	0.268011	-0.255561	-0.970694	-0.374215	0.083148	65.889898
41689	13455283	0.033614	0.031239	9.835814	0.011232	-0.004892	0.023307				-0.372601	0.082469	65.893242
41692	13455308	0.040283	0.026055	9.833133	0.011772	0.003113	0.014965				-0.372744	0.082859	65.891436
41696	13455333	0.021710	0.014554	9.823436	-0.006634	-0.003733	-0.003044				-0.373695	0.082321	65.891007
41699	13455358	0.037479	0.025589	9.856417	-0.020152	0.006966	-0.024667	0.268002	-0.255068	-0.970682	-0.376587	0.083296	65.887460
41703	13455383	0.041522	0.032437	9.827622	-0.008775	0.018585	-0.009607				-0.377846	0.085949	65.886067
41706	13455408	0.043027	0.021860	9.827675	-0.000188	0.017485	-0.017633				-0.371740	0.083182	65.888292
41710	13455433	0.044639	0.040692	9.823505	-0.001653	-0.018714	0.007932				-0.371975	0.080509	65.889443
41713	13455458	0.036473	0.021595	9.833121	-0.006774	-0.003928	-0.003166	0.268479	-0.255077	-0.970680	-0.372946	0.079943	65.888991
41717	13455483	0.028075	0.017893	9.848159	0.022234	0.009871	-0.003834				-0.369762	0.081353	65.888427
41720	13455508	0.057612	0.029984	9.840093	-0.013684	0.017293	0.002842				-0.372901	0.083153	65.887955
41724	13455533	0.053647	0.040928	9.838658	0.005031	-0.000544	0.008571				-0.372179	0.083083	65.889195
41727	13455558	0.044570	0.019166	9.835922	0.000387	-0.003301	0.001696	0.267996	-0.255563	-0.971189	-0.372123	0.082612	65.889439
41731	13455583	0.023933	0.023989	9.831645	-0.010766	0.014932	-0.010596				-0.373667	0.084741	65.887905
41734	13455608	0.047311	0.009603	9.837343	-0.016263	0.011508	-0.013226				-0.368009	0.083735	65.886992
41738	13455633	0.036501	0.021743	9.830368	-0.000530	-0.002646	0.001632				-0.368085	0.083358	65.887237
41741	13455658	0.047349	0.024591	9.831815	0.001594	-0.008000	-0.007492	0.268461	-0.254092	-0.970657	-0.367858	0.082205	65.886167
41745	13455683	0.038657	0.032601	9.833099	0.001329	0.014882	-0.004555				-0.367668	0.084332	65.885495
41748	13455708	0.043050	0.024591	9.827674	0.008227	0.010315	0.012878				-0.364960	0.083901	65.886409
41752	13455733	0.052819	0.023325	9.820885	-0.003827	-0.004756	-0.002968				-0.365508	0.083217	65.885986
41755	13455758	0.070408	0.026426	9.831958	0.005430	-0.010301	-0.004807	0.268443	-0.253107	-0.970634	-0.364731	0.081737	65.885315
41759	13455783	0.043291	0.012023	9.823597	-0.020164	0.003394	-0.009966				-0.367622	0.082214	65.883879
41762	13455808	0.029521	0.004023	9.842732	-0.005814	0.031763	0.004156				-0.362113	0.086494	65.885202
41766	13455833	0.051250	0.012585	9.831877	0.003731	0.011580	0.002566				-0.361578	0.088155	65.885551
41769	13455858	0.067799	0.027545	9.796291	0.002769	0.003697	0.000721	0.268457	-0.253105	-0.970139	-0.361182	0.088686	65.885650
41773	13455883	0.033738	0.006486	9.830405	-0.024451	0.013979	0.001831				-0.364684	0.090689	65.885901
41776	13455908	0.043750	-0.010659	9.826410	-0.017333	0.001478	-0.012651				-0.363298	0.087439	65.882418
41780	13455933	0.048857	0.017787	9.822244	-0.004123	-0.005794	-0.005253				-0.363890	0.086605	65.881658
41783	13455958	0.041819	0.025528	9.816684	-0.017728	0.004590	0.002229	0.269918	-0.254607	-0.970167	-0.366429	0.087264	65.881967
41787	13455983	0.062133	0.023400	9.833288	-0.007790	-0.002709	-0.001615				-0.367545	0.086874	65.881743
41790	13456008	0.061830	0.045263	9.833219	0.020324	-0.014149	-0.003199				-0.363763	0.085315	65.881763
41794	13456033	0.039170	0.009656	9.842783	-0.001255	0.000560	-0.011057				-0.363945	0.085385	65.880187
41797	13456058	0.051422	0.019247	9.835969	-0.006260	-0.009735	0.005040	0.269889	-0.254611	-0.971156	-0.364841	0.083995	65.880907
41801	13456083	0.048488	0.008570	9.838726	0.004323	0.014311	0.001816				-0.364221	0.086047	65.881162
41804	13456108	0.054948	0.041908	9.830438	-0.016975	0.024298	0.000489				-0.365132	0.085162	65.880743
41808	13456133	0.041751	0.017701	9.838653	-0.005674	0.004651	-0.009775				-0.365947	0.085819	65.879333
41811	13456158	0.026729	0.018699	9.834422	-0.012574	0.015906	-0.001127	0.268966	-0.255577	-0.970689	-0.367749	0.088097	65.879161
41815	13456183	0.053961	0.027274	9.842818	-0.008966	-0.007769	0.004175				-0.369032	0.086987	65.879761
41818	13456208	0.048181	0.035317	9.842744	-0.009079	0.010602	0.012833				-0.365171	0.089753	65.881206
41822	13456233	0.040405	0.022859	9.835882	-0.020328	0.000998	0.000377				-0.368083	0.089896	65.881262
41825	13456258	0.039923	0.046110	9.845402	-0.001749	0.007682	-0.014237	0.268044	-0.256543	-0.970222	-0.368337	0.090984	65.879213
41829	13456283	0.046968	0.039305	9.823532	0.004925	0.007330	0.004251				-0.367630	0.092037	65.879805
41832	13456308	0.019662	0.030661	9.831598	-0.014322	0.025272	-0.009736				-0.368419	0.091561	65.878390
41836	13456333	0.021440	0.020271	9.837139	0.001901	0.000198	-0.010610				-0.368149	0.091579	65.876864
41839	13456358	0.027979	0.036428	9.830266	0.002082	0.007232	-0.001109	0.268024	-0.257040	-0.971223	-0.367851	0.092614	65.876707
41843	13456383	0.044440	0.029642	9.823544	-0.009190	0.001755	-0.000021				-0.369167	0.092866	65.876701
41846	13456408	0.041660	0.025945	9.826280	0.006296	0.010353	0.003089				-0.362988	0.093230	65.877740
41850	13456433	0.038973	0.028327	9.822138	-0.004266	0.013451	-0.002162				-0.363600	0.095155	65.877422
41853	13456458	0.040203	0.033872	9.831734	0.004333	0.008532	0.007740	0.269486	-0.257060	-0.970227	-0.362977	0.096384	65.878525
41857	13456483	0.023391	0.053858	9.839785	-0.000277	0.008360	-0.008953				-0.363019	0.097573	65.877229
41860	13456508	0.043275	0.025628	9.823545	-0.014390	0.000173	-0.000854				-0.363101	0.094736	65.878359
41864	13456533	0.026755	0.025334	9.827556	-0.016157	0.002766	0.006717				-0.365414	0.095138	65.879325
41867	13456558	0.035040	0.024093	9.826233	-0.022286	0.008804	-0.000575	0.269495	-0.257553	-0.970238	-0.368606	0.096399	65.879236
41871	13456583	0.050212	0.018976	9.835963	-0.017799	-0.013845	-0.002067				-0.371156	0.094414	65.878953
41874	13456608	0.046186	0.001594	9.827768	-0.009380	-0.002135	-0.006782				-0.366739	0.095352	65.876983
41878	13456633	0.045789	0.023122	9.822209	0.001916	0.007686	-0.015323				-0.366469	0.096439	65.874782
41881	13456658	0.049710	0.028627	9.830435	-0.005147	0.012146	0.000463	0.267567	-0.255053	-0.969200	-0.367206	0.098179	65.874829
41885	13456683	0.065695	0.043706	9.842844	-0.002378	0.011751	0.017697				-0.367542	0.099878	65.877354
41888	13456708	0.055391	0.023555	9.831876	0.011484	0.004625	0.020662				-0.364853	0.094951	65.877520
41892	13456733	0.057808	0.034356	9.833221	0.009917	-0.001606	-0.001042				-0.363433	0.094720	65.877377
41895	13456758	0.062187	0.024817	9.841518	-0.001849	-0.012206	-0.008799	0.268032	-0.253582	-0.968668	-0.363700	0.092963	65.876125
41899	13456783	0.074538	0.025382	9.838852	0.015660	-0.013906	0.007758				-0.361455	0.090978	65.877251
41902	13456808	0.046904	0.035215	9.829033	0.002430	0.002611	-0.006858				-0.360438	0.093105	65.877693
41906	13456833	0.037768	0.017640	9.841371	-0.005461	0.004004	-0.000583				-0.361220	0.093678	65.877609
41909	13456858	0.026693	0.031026	9.827530	-0.005066	0.004503	-0.012805	0.269455	-0.254596	-0.969674	-0.361949	0.094311	65.875761
41913	13456883	0.037653	0.008239	9.844144	-0.001837	0.015962	0.005870				-0.362211	0.096603	65.876590
41916	13456908	0.047171	0.024598	9.823581	-0.002746	0.017945	-0.010033				-0.356849	0.092962	65.875427
41920	13456933	0.053562	0.041997	9.831795	-0.009321	0.007147	-0.016607				-0.358188	0.093971	65.873039
41923	13456958	0.034921	0.025482	9.823491	-0.011866	0.013877	-0.001922	0.268966	-0.255577	-0.970689	-0.359888	0.095957	65.872758
41927	13456983	0.034666	0.035143	9.831692	0.005808	0.013338	-0.002819				-0.359057	0.097865	65.872348
41930	13457008	0.040494	0.035125	9.824861	-0.008519	-0.004576	-0.001745				-0.358120	0.095666	65.873314
41934	13457033	0.060763	0.042225	9.820882	-0.003035	-0.020650	0.012104				-0.358552	0.092719	65.875062
41937	13457058	0.062031	0.023299	9.838774	-0.009926	0.007489	0.006081	0.268972	-0.255083	-0.970183	-0.359972	0.093797	65.875930
41941	13457083	0.044484	0.023178	9.831792	-0.004707	-0.001287	-0.005466				-0.360648	0.093607	65.875148
41944	13457108	0.042120	0.002646	9.845561	-0.026338	-0.003774	0.014384				-0.359660	0.093251	65.877551
41948	13457133	0.038964	0.039018	9.835816	-0.018372	-0.010200	0.002216				-0.362291	0.091792	65.877882
41951	13457158	0.050074	0.017863	9.834593	-0.005805	-0.007983	0.008520	0.269936	-0.255591	-0.970190	-0.363120	0.090656	65.879102
41955	13457183	0.024259	0.022748	9.816575	0.000817	-0.002682	-0.008717				-0.363005	0.090264	65.877858
41958	13457208	0.053754	0.030038	9.830460	-0.006180	0.016890	0.000857				-0.361432	0.090959	65.878369
41962	13457233	0.051169	0.032599	9.822204	-0.006858	0.010173	-0.022598				-0.362420	0.092396	65.875128
41965	13457258	0.021555	0.013327	9.837152	-0.010706	0.011298	-0.006355	0.268986	-0.255080	-0.969688	-0.363955	0.094009	65.874207
41969	13457283	0.044356	0.016552	9.835924	0.002913	0.018989	0.002943				-0.363537	0.096731	65.874602
41972	13457308	0.047506	0.011070	9.829116	0.000204	-0.005174	-0.016950				-0.360566	0.090934	65.870534
41976	13457333	0.044712	0.002933	9.840096	-0.003037	0.002794	0.022966				-0.360996	0.091355	65.873821
41979	13457358	0.053987	0.012706	9.826412	0.012112	0.017861	0.012365	0.269015	-0.255076	-0.968698	-0.359258	0.093924	65.875578
41983	13457383	0.017272	0.030819	9.830213	0.003992	0.008771	-0.004745				-0.358688	0.095176	65.874887
41986	13457408	0.045938	0.010921	9.831836	-0.013514	0.007732	-0.000687				-0.357530	0.095825	65.875881
41990	13457433	0.056783	0.005792	9.826448	-0.008319	0.017576	0.001875				-0.358721	0.098345	65.876143
41993	13457458	0.034893	0.028308	9.842682	-0.009580	-0.003886	0.005569	0.268060	-0.255059	-0.968703	-0.360092	0.097793	65.876942
41997	13457483	0.024612	-0.005363	9.838611	0.002649	-0.001016	-0.028117				-0.359719	0.097622	65.872915
42000	13457508	0.064700	0.027475	9.829177	-0.005519	0.005823	-0.008298				-0.357069	0.097944	65.875036
42004	13457533	0.066193	0.019426	9.837432	-0.014468	0.005521	0.005169				-0.359140	0.098740	65.875775
42007	13457558	0.045946	0.015167	9.834581	-0.001034	-0.002506	0.010689	0.269029	-0.255073	-0.968203	-0.359285	0.098390	65.877310
42011	13457583	0.055614	0.001659	9.831937	-0.014822	0.006427	0.026569				-0.361402	0.099335	65.881110
42014	13457608	0.055374	0.026011	9.831860	-0.016993	0.001647	-0.000039				-0.358104	0.096528	65.873252
42018	13457633	0.056565	0.026097	9.844213	-0.000595	-0.007492	0.006811				-0.358187	0.095461	65.874235
42021	13457658	0.036234	0.029739	9.839946	-0.007632	0.001672	0.003129	0.269996	-0.254101	-0.967186	-0.359280	0.095703	65.874681
42025	13457683	0.044715	0.011061	9.837336	0.003803	0.000253	-0.002694				-0.358735	0.095737	65.874284
42028	13457708	0.047039	0.029666	9.831783	-0.023274	0.008497	-0.008556				-0.361490	0.095929	65.877180
42032	13457733	0.047087	0.024522	9.827698	-0.003174	-0.002171	-0.011981				-0.361947	0.095607	65.875471
42035	13457758	0.037558	0.037795	9.835821	-0.004351	-0.004883	0.001113	0.269015	-0.255076	-0.968698	-0.362570	0.094908	65.875634
42039	13457783	0.057970	0.033947	9.834599	-0.013863	-0.009802	0.017224				-0.364552	0.093520	65.878105
42042	13457808	0.022785	0.024146	9.830266	-0.010890	0.001310	0.012398				-0.360342	0.093212	65.877027
42046	13457833	0.032351	0.023090	9.844059	0.003088	-0.001869	-0.013220				-0.359902	0.092933	65.875135
42049	13457858	0.045779	0.023123	9.848261	-0.003067	0.002067	-0.001727	0.269484	-0.254592	-0.968684	-0.360342	0.093227	65.874881
42053	13457883	0.051174	0.032574	9.816726	-0.004348	0.006431	0.002226				-0.360964	0.094150	65.875190
42056	13457908	0.040741	0.025581	9.820788	-0.015552	-0.017515	0.007460				-0.361309	0.087407	65.878460
42060	13457933	0.028286	0.024020	9.822072	-0.017963	0.003520	0.007802				-0.363881	0.087918	65.879575
42063	13457958	0.039290	0.028235	9.829007	-0.008678	-0.015225	0.006740	0.270425	-0.254610	-0.969174	-0.365122	0.085744	65.880564
42067	13457983	0.055439	0.029990	9.826366	-0.009818	-0.013356	0.004601				-0.366528	0.083835	65.881228
42070	13458008	0.039175	0.005829	9.841420	0.008191	0.009817	-0.004834				-0.361332	0.086140	65.880132
42074	13458033	0.036557	0.009750	9.838640	0.012986	-0.002255	-0.013603				-0.359475	0.085805	65.878183
42077	13458058	0.038456	0.044645	9.835805	-0.004120	0.014073	-0.008950	0.268995	-0.255573	-0.969699	-0.360067	0.087812	65.876884
42081	13458083	0.041651	0.035110	9.839966	-0.015397	-0.005555	-0.004525				-0.362273	0.087013	65.876244
42084	13458108	0.040109	0.039152	9.846808	-0.011685	-0.003651	0.005309				-0.359905	0.083456	65.878335
42088	13458133	0.040305	0.024347	9.835881	-0.002496	0.000691	-0.007161				-0.360264	0.083548	65.877312
42091	13458158	0.058163	0.011066	9.831919	-0.017586	0.008956	-0.001942	0.268550	-0.256547	-0.969230	-0.362784	0.084829	65.877019
42095	13458183	0.037517	0.031212	9.848177	0.001085	-0.003952	-0.003010				-0.362629	0.084261	65.876596
42098	13458208	0.038793	0.020649	9.849604	0.009251	0.013925	-0.008342				-0.360428	0.084088	65.875159
42102	13458233	0.059488	0.024645	9.837383	-0.015742	-0.008410	-0.024834				-0.362688	0.082860	65.871615
42105	13458258	0.037812	0.025599	9.831737	-0.003658	-0.010614	0.004351	0.268541	-0.256054	-0.969218	-0.363211	0.081344	65.872247
42109	13458283	0.047238	0.023407	9.822226	0.011882	0.006253	-0.006653				-0.361511	0.082234	65.871296
42112	13458308	0.030296	-0.005245	9.809852	0.015055	-0.000177	-0.008325				-0.357664	0.078813	65.870613
42116	13458333	0.029606	0.025514	9.824830	-0.000605	0.000203	-0.003552				-0.357752	0.078839	65.870099
42119	13458358	0.048493	0.027244	9.818090	-0.002754	0.015575	-0.006069	0.269430	-0.255588	-0.971182	-0.358147	0.081064	65.869212
42123	13458383	0.045704	0.035059	9.833129	-0.019939	-0.001234	-0.010687				-0.361006	0.080878	65.867686
42126	13458408	0.041932	0.021772	9.829043	-0.009225	-0.011124	0.012237				-0.354529	0.078443	65.869969
42130	13458433	0.043080	0.027254	9.834522	0.004004	0.004460	0.005002				-0.353954	0.079086	65.870694
42133	13458458	0.046987	0.021889	9.830446	0.007135	0.017689	0.005148	0.268953	-0.254098	-0.970160	-0.352931	0.081624	65.871406
42137	13458483	0.036076	0.035201	9.835817	0.001925	0.013936	0.007664				-0.352654	0.083627	65.872483
42140	13458508	0.047201	0.026114	9.840046	0.010993	-0.012819	0.006704				-0.350978	0.077678	65.870848
42144	13458533	0.046152	0.003052	9.808561	0.012811	0.020632	-0.021259				-0.349147	0.080615	65.867791
42147	13458558	0.029526	0.037582	9.830273	-0.007947	-0.007194	0.002080	0.269020	-0.254581	-0.968192	-0.350285	0.079586	65.868101
42151	13458583	0.034715	0.036353	9.837176	-0.010380	0.002654	0.011317				-0.351769	0.079976	65.869712
42154	13458608	0.044259	0.027062	9.837261	-0.020757	0.011547	0.004104				-0.349745	0.081318	65.869792
42158	13458633	0.044176	0.040685	9.831740	0.001086	0.009039	-0.013719				-0.349592	0.082601	65.867825
42161	13458658	0.024418	0.006764	9.839940	0.001617	0.002275	-0.008000	0.270486	-0.255588	-0.967713	-0.349362	0.082919	65.866671
42165	13458683	0.051164	0.020771	9.833230	0.010641	0.011921	0.004074				-0.347837	0.084631	65.867250
42168	13458708	0.045948	0.017830	9.835935	-0.007491	-0.000469	-0.015244				-0.348688	0.081300	65.866070
42172	13458733	0.036674	0.016342	9.826283	0.008920	-0.010176	-0.000344				-0.347410	0.079843	65.866035
42175	13458758	0.028367	0.025656	9.827571	0.005420	-0.007084	-0.002286	0.270457	-0.255593	-0.968703	-0.346635	0.078826	65.865712
42179	13458783	0.039197	0.028475	9.820776	0.004761	-0.011416	0.013769				-0.345950	0.077203	65.867703
42182	13458808	0.060455	0.026297	9.830530	0.016691	0.020197	-0.004236				-0.339486	0.081499	65.865653
42186	13458833	0.057668	0.040828	9.837319	-0.004517	0.006910	-0.018777				-0.340137	0.082472	65.862957
42189	13458858	0.040382	0.018905	9.824915	-0.005884	0.015274	-0.001352	0.269006	-0.254583	-0.968687	-0.340980	0.084659	65.862744
42193	13458883	0.037160	0.033840	9.841309	-0.008830	0.027277	0.004788				-0.342244	0.088570	65.863410
42196	13458908	0.056201	0.031353	9.845566	-0.013201	0.026941	0.010321				-0.338952	0.084975	65.866188
42200	13458933	0.020144	0.022682	9.824764	-0.007425	0.004227	-0.004539				-0.340016	0.085576	65.865530
42203	13458958	0.056667	0.028825	9.829121	-0.003226	-0.005664	-0.014244	0.269464	-0.255089	-0.969685	-0.340481	0.084753	65.863498
42207	13458983	0.036351	0.004158	9.844150	-0.012569	0.011218	-0.027478				-0.342287	0.086336	65.859541
42210	13459008	0.057919	0.032876	9.830486	0.003764	0.004047	-0.009288				-0.337976	0.087307	65.862836
42214	13459033	0.016303	0.027887	9.821982	-0.013694	-0.012435	-0.003374				-0.339939	0.085523	65.862369
42217	13459058	0.044298	0.015078	9.833195	-0.004394	0.018197	0.009425	0.268546	-0.255560	-0.968712	-0.340566	0.088138	65.863699
42221	13459083	0.054106	0.016634	9.834625	0.000805	0.007856	-0.014782				-0.340454	0.089250	65.861580
42224	13459108	0.033968	0.021609	9.831737	-0.004274	-0.020127	-0.003462				-0.339754	0.084907	65.859253
42228	13459133	0.034076	-0.003816	9.838665	0.006008	-0.003143	0.000793				-0.338894	0.084458	65.859362
42231	13459158	0.045380	0.032566	9.831771	-0.003958	0.028497	-0.002213	0.269040	-0.254084	-0.967190	-0.339461	0.088538	65.859017
42235	13459183	0.047011	0.016732	9.859260	0.005741	0.012992	-0.022006				-0.338644	0.090380	65.855855
42238	13459208	0.037394	0.032443	9.844060	-0.003617	0.010006	-0.001347				-0.336638	0.089154	65.856692
42242	13459233	0.034909	0.031088	9.826225	0.004272	0.003694	-0.006668				-0.336028	0.089678	65.855725
42245	13459258	0.024294	0.023998	9.827542	-0.009924	-0.012381	-0.013658	0.269509	-0.253600	-0.967176	-0.337453	0.087893	65.853775
42249	13459283	0.038678	0.047267	9.820702	-0.003649	0.010894	-0.003569				-0.337976	0.089450	65.853262
42252	13459308	0.039076	0.021941	9.839998	0.012286	-0.009222	-0.018607				-0.331651	0.086472	65.847919
42256	13459333	0.045795	0.032619	9.831780	-0.005008	-0.003208	-0.011224				-0.332371	0.086003	65.846309
42259	13459358	0.033586	0.031008	9.834444	-0.003032	-0.005241	0.009222	0.269516	-0.255574	-0.968212	-0.332803	0.085260	65.847640
42263	13459383	0.037493	0.028396	9.820755	-0.001210	0.021778	0.002418				-0.332976	0.088381	65.847964
42266	13459408	0.041734	0.024451	9.827657	-0.011852	0.009739	-0.000034				-0.331796	0.086284	65.847103
42270	13459433	0.043116	0.039341	9.827624	-0.003132	-0.010134	-0.011210				-0.332247	0.084823	65.845506
42273	13459458	0.029971	0.004224	9.844106	0.005502	-0.009751	-0.000930	0.269015	-0.255076	-0.968698	-0.331459	0.083426	65.845380
42277	13459483	0.027936	0.027018	9.839911	-0.005111	0.002496	0.009012				-0.332190	0.083791	65.846677
42280	13459508	0.041217	0.050075	9.830316	0.001767	0.018188	0.001748				-0.328152	0.087227	65.845908
42284	13459533	0.038885	0.017622	9.848221	-0.012930	0.009498	0.002323				-0.330004	0.088589	65.846244
42287	13459558	0.056705	0.022201	9.820910	0.011115	0.013225	0.000577	0.267531	-0.253084	-0.969154	-0.328411	0.090484	65.846302
42291	13459583	0.040398	0.019033	9.831774	-0.003089	0.002991	0.008124				-0.328852	0.090919	65.847466
42294	13459608	0.041711	0.032675	9.844092	0.013088	-0.008668	0.005597				-0.324040	0.087685	65.848412
42298	13459633	0.039223	0.017462	9.826291	-0.017843	-0.006443	-0.010280				-0.326598	0.086754	65.846944
42301	13459658	0.045342	0.041859	9.820769	-0.016588	0.029834	-0.001553	0.268515	-0.253096	-0.968159	-0.328974	0.091026	65.846692
42305	13459683	0.037942	0.020522	9.827643	0.005826	-0.004010	0.001396				-0.328139	0.090452	65.846896
42308	13459708	0.036548	0.031258	9.834465	0.014332	-0.022751	-0.010665				-0.324139	0.086266	65.846288
42312	13459733	0.044284	0.029730	9.826282	-0.010216	0.016840	0.005841				-0.325601	0.088683	65.847122
42315	13459758	0.036275	0.037820	9.822106	-0.000216	0.000745	-0.003827	0.270430	-0.254116	-0.968668	-0.325633	0.088787	65.846571
42319	13459783	0.048521	0.033013	9.834543	0.021082	-0.014375	0.014640				-0.322610	0.086740	65.848681
42322	13459808	0.029233	0.027030	9.844030	0.000733	0.010803	0.007948				-0.321467	0.087840	65.847923
42326	13459833	0.019943	0.029516	9.835720	-0.001222	0.006354	0.001593				-0.321642	0.088751	65.848144
42329	13459858	0.047190	0.028756	9.822197	0.009140	0.012128	0.011858	0.269431	-0.254106	-0.970157	-0.320330	0.090498	65.849829
42333	13459883	0.041559	0.016286	9.830423	-0.004011	0.020272	0.008157				-0.320903	0.093408	65.850981
42336	13459908	0.059428	0.020740	9.815456	0.006486	0.015219	0.005572				-0.313154	0.088707	65.852713
42340	13459933	0.017403	0.013272	9.824796	-0.007360	0.017788	0.007901				-0.314206	0.091261	65.853831
42343	13459958	0.059247	0.021918	9.837386	-0.010544	0.016508	0.010221	0.269970	-0.255092	-0.968693	-0.315714	0.093634	65.855275
42347	13459983	0.034732	0.001276	9.855112	-0.021325	0.025135	-0.016734				-0.318772	0.097221	65.852856
42350	13460008	0.063081	0.023427	9.855238	-0.015636	0.009850	-0.002280				-0.315305	0.096025	65.856070
42354	13460033	0.058468	0.008262	9.837429	-0.023997	-0.010267	-0.008474				-0.318744	0.094548	65.854863
42357	13460058	0.063591	0.030223	9.829166	0.000913	-0.014715	0.008112	0.269518	-0.254092	-0.967188	-0.318612	0.092447	65.856049
42361	13460083	0.039015	0.015292	9.850985	0.008120	0.002524	0.000629				-0.317448	0.092809	65.856140
42364	13460108	0.030726	0.036194	9.828920	-0.012547	0.000983	-0.000338				-0.320248	0.094246	65.853585
42368	13460133	0.064781	0.035472	9.825033	-0.009699	-0.005223	-0.009103				-0.321639	0.093491	65.852295
42371	13460158	0.056565	0.035469	9.830458	-0.002779	0.003622	-0.004543	0.269970	-0.255092	-0.968693	-0.322038	0.094006	65.851637
42375	13460183	0.039460	0.007119	9.829074	0.012688	-0.004196	-0.007483				-0.320222	0.093399	65.850571
42378	13460208	0.033453	0.009520	9.829028	0.005138	0.018546	0.002946				-0.316919	0.095098	65.852106
42382	13460233	0.050938	0.019185	9.862021	-0.024417	0.017425	0.011691				-0.320414	0.097603	65.853774
42385	13460258	0.039039	0.014857	9.846880	-0.013626	0.010286	0.011592	0.269474	-0.254099	-0.968673	-0.322363	0.099086	65.855419
42389	13460283	0.057567	0.039667	9.827717	0.008574	0.018938	0.012386				-0.321132	0.101808	65.857190
42392	13460308	0.047023	0.041938	9.819412	-0.004894	0.001627	-0.005603				-0.318032	0.096778	65.853540
42396	13460333	0.047312	0.013725	9.831853	0.001340	0.012207	-0.007409				-0.317842	0.098521	65.852476
42399	13460358	0.044750	0.009852	9.841447	0.005308	-0.012076	0.003922	0.269442	-0.253117	-0.969144	-0.317081	0.096794	65.853058
42403	13460383	0.028112	0.033653	9.824789	-0.007002	0.001399	0.009564				-0.318081	0.097002	65.854417
42406	13460408	0.029622	0.025408	9.806993	-0.007522	0.012998	0.018522				-0.313706	0.099463	65.857437
42410	13460433	0.041862	0.025939	9.846859	0.004238	-0.010301	-0.020841				-0.313104	0.097971	65.854464
42413	13460458	0.053850	0.041894	9.833163	-0.019675	-0.014396	0.007747	0.269467	-0.252125	-0.967637	-0.315921	0.095915	65.855588
42417	13460483	0.037780	0.039180	9.813879	0.000530	-0.011322	-0.008067				-0.315847	0.094287	65.854438
42420	13460508	0.008147	0.013092	9.821969	-0.005698	0.006360	0.011620				-0.314519	0.095113	65.858628
42424	13460533	0.051247	0.015541	9.820904	0.022937	0.017510	0.005074				-0.311233	0.097625	65.859338
42427	13460558	0.022866	0.031023	9.830258	0.009885	-0.003704	-0.002582	0.269563	-0.252604	-0.964679	-0.309817	0.097092	65.858968
42431	13460583	0.024072	0.028136	9.833008	0.000517	0.003642	-0.031197				-0.309751	0.097590	65.854506
42434	13460608	0.043353	0.018915	9.838658	-0.020958	-0.012453	0.004864				-0.309530	0.091755	65.858507
42438	13460633	0.035019	0.021794	9.845448	0.003943	0.000891	-0.005718				-0.308966	0.091878	65.857702
42441	13460658	0.018676	0.022671	9.831619	-0.003991	0.005725	-0.003678	0.270976	-0.253126	-0.965673	-0.309539	0.092696	65.857162
42445	13460683	0.029391	0.040153	9.834374	-0.018984	-0.000428	0.014538				-0.312255	0.092646	65.859245
42448	13460708	0.034989	0.012209	9.829022	-0.006479	0.012825	0.002682				-0.307186	0.093104	65.853082
42452	13460733	0.034450	0.041874	9.823444	0.000298	0.029883	-0.002511				-0.307144	0.097383	65.852689
42455	13460758	0.041706	0.029770	9.826268	-0.006191	0.007710	-0.005883	0.272348	-0.252172	-0.967128	-0.308033	0.098482	65.851833
42459	13460783	0.036607	0.002824	9.842777	-0.012161	-0.000393	-0.000992				-0.309775	0.098425	65.851695
42462	13460808	0.029623	0.016401	9.849544	0.001906	0.010945	0.018884				-0.307259	0.098086	65.856605
42466	13460833	0.028136	0.021502	9.848154	-0.006188	-0.001566	0.004202				-0.308145	0.097865	65.857199
42469	13460858	0.044948	-0.002651	9.846978	-0.025126	-0.015035	-0.004700	0.270011	-0.252617	-0.965666	-0.311745	0.095708	65.856544
42473	13460883	0.037837	0.014867	9.837270	-0.013717	-0.003140	0.004791				-0.313708	0.095262	65.857237
42476	13460908	0.044667	0.009736	9.842807	-0.008376	0.000992	-0.001755				-0.311477	0.093864	65.856164
42480	13460933	0.040532	0.024663	9.838621	0.003360	-0.008969	0.007947				-0.310994	0.092586	65.857312
42483	13460958	0.036225	0.021858	9.839971	0.012341	0.009297	-0.011221	0.269565	-0.255073	-0.966221	-0.309229	0.093909	65.855695
42487	13460983	0.057085	0.017983	9.819554	-0.003879	-0.006141	0.001337				-0.309784	0.093030	65.855889
42490	13461008	0.048779	0.011029	9.826380	-0.001858	0.002481	0.003107				-0.308250	0.091893	65.856832
42494	13461033	0.062837	0.050356	9.829094	-0.003798	0.013059	0.002944				-0.308793	0.093765	65.857238
42497	13461058	0.037489	0.017672	9.822175	-0.005449	0.027739	-0.016961	0.270015	-0.253604	-0.966184	-0.309578	0.097726	65.854792
42501	13461083	0.030625	0.023150	9.839930	0.010647	0.019160	0.003178				-0.308052	0.100472	65.855227
42504	13461108	0.060533	0.031565	9.844227	0.001647	0.005868	0.000796				-0.306690	0.095759	65.855124
42508	13461133	0.027838	0.024436	9.846772	0.007723	0.026315	0.014910				-0.305580	0.099540	65.857247
42511	13461158	0.037859	0.016336	9.835881	0.005782	0.005893	0.008751	0.270450	-0.253619	-0.967667	-0.304750	0.100391	65.858497
42515	13461183	0.044696	0.014884	9.830451	-0.019680	-0.010869	-0.013399				-0.307573	0.098824	65.856590
42518	13461208	0.053843	0.028678	9.838689	-0.007945	0.003272	-0.008003				-0.301159	0.101670	65.857839
42522	13461233	0.039241	0.018947	9.831774	-0.003375	-0.005671	0.016215				-0.301638	0.100870	65.860163
42525	13461258	0.053034	0.007111	9.849731	-0.007258	-0.010549	0.001036	0.270933	-0.253132	-0.967158	-0.302678	0.099360	65.860308
42529	13461283	0.064767	0.015418	9.844303	-0.010520	-0.003193	-0.007835				-0.304186	0.098897	65.859203
42532	13461308	0.055335	0.034150	9.829097	0.003152	-0.011392	-0.019553				-0.301849	0.094217	65.855587
42536	13461333	0.051404	0.020718	9.830486	0.006558	-0.004390	0.010197				-0.300907	0.093596	65.857049
42539	13461358	0.049907	0.026071	9.829081	-0.000891	0.003698	0.017452	0.270484	-0.253120	-0.966170	-0.301031	0.094139	65.859549
42543	13461383	0.062108	0.033964	9.822285	-0.009605	-0.005051	0.008132				-0.302405	0.093422	65.860723
42546	13461408	0.057681	0.025989	9.823645	-0.011614	0.034878	-0.002521				-0.301001	0.096739	65.858022
42550	13461433	0.036294	0.021519	9.831736	-0.017169	0.014509	-0.005515				-0.303461	0.098814	65.857220
42553	13461458	0.048292	0.042005	9.835875	-0.006017	-0.000508	-0.005585	0.269561	-0.254085	-0.965703	-0.304325	0.098737	65.856418
42557	13461483	0.020269	0.017495	9.830284	0.003684	-0.006220	-0.004482				-0.303798	0.097842	65.855790
42560	13461508	0.044672	0.024309	9.818072	-0.018415	0.003442	-0.007281				-0.305137	0.096575	65.856522
42564	13461533	0.041486	0.017950	9.850998	0.011455	0.017832	-0.010973				-0.303499	0.099121	65.854946
42567	13461558	0.058010	0.019387	9.838760	-0.002007	0.001833	0.006729	0.269556	-0.254580	-0.966210	-0.303784	0.099389	65.855909
42571	13461583	0.075512	0.025059	9.841604	-0.002646	0.006825	-0.005351				-0.304165	0.100363	65.855139
42574	13461608	0.067196	0.041136	9.833271	0.002958	0.005393	-0.006925				-0.299636	0.097331	65.854264
42578	13461633	0.059186	0.035534	9.825009	-0.002255	0.001279	0.003442				-0.299958	0.097516	65.854752
42581	13461658	0.063430	0.019231	9.845657	-0.017858	-0.001176	-0.007938	0.268539	-0.253586	-0.967676	-0.302518	0.097342	65.853611
42585	13461683	0.047481	0.020356	9.826337	-0.009440	-0.010444	-0.004803				-0.303871	0.095842	65.852932
42588	13461708	0.050217	0.020481	9.824989	-0.003907	-0.010218	-0.010800				-0.300261	0.094911	65.851308
42592	13461733	0.056943	0.018055	9.829162	-0.000983	-0.006427	-0.009213				-0.300404	0.093983	65.849992
42595	13461758	0.047132	0.028426	9.819445	-0.022325	0.007653	0.001177	0.269505	-0.252613	-0.966658	-0.303601	0.095081	65.850168
42599	13461783	0.040066	0.023113	9.822170	0.004923	0.040005	-0.026242				-0.302903	0.100791	65.846377
42602	13461808	0.040459	0.024520	9.822154	0.004803	0.007291	-0.003125				-0.301069	0.092690	65.848983
42606	13461833	0.030878	0.021546	9.831715	-0.006884	0.001542	-0.011168				-0.302057	0.092902	65.847375
42609	13461858	0.036505	0.014893	9.818048	-0.002055	0.009808	-0.010011	0.271937	-0.252647	-0.965162	-0.302354	0.094300	65.845934
42613	13461883	0.049991	0.012572	9.837354	0.014313	0.006281	-0.006182				-0.300305	0.095195	65.845047
42616	13461908	0.059450	0.027339	9.818168	-0.004452	0.007974	-0.004010				-0.299097	0.099216	65.841486
42620	13461933	0.047002	0.032529	9.830404	-0.009094	0.004448	0.001587				-0.300400	0.099854	65.841703
42623	13461958	0.006523	0.033232	9.823275	-0.000621	-0.002010	0.003703	0.272412	-0.255619	-0.967209	-0.300488	0.099569	65.842237
42627	13461983	0.042975	0.036478	9.813910	-0.003400	0.003427	0.004844				-0.300974	0.100064	65.842932
42630	13462008	0.046960	0.049931	9.813883	-0.012609	0.002803	0.006983				-0.297048	0.098938	65.842345
42634	13462033	0.033371	0.033908	9.834427	0.011566	0.009744	-0.010546				-0.295394	0.100326	65.840830
42637	13462058	0.017404	0.009315	9.849483	-0.005622	0.011630	0.004090	0.270982	-0.256581	-0.967734	-0.296198	0.101994	65.841399
42641	13462083	0.031914	0.036554	9.835793	0.005950	0.011759	-0.013480				-0.295349	0.103669	65.839452
42644	13462108	0.035586	0.051389	9.854966	0.001852	0.004271	0.002199				-0.293223	0.101169	65.842441
42648	13462133	0.005742	-0.045741	9.896209	0.013947	0.007862	-0.000288				-0.291225	0.102295	65.842387
42651	13462158	0.057289	0.074692	9.791951	0.019260	0.017618	-0.007260	0.270960	-0.254609	-0.967193	-0.288468	0.104813	65.841336
42655	13462183	0.017628	0.085534	9.827298	-0.026377	0.012331	0.009090				-0.292244	0.106586	65.842621
42658	13462208	0.035398	0.010972	9.834517	-0.010943	0.001013	0.009194				-0.285991	0.104707	65.840705
42662	13462233	0.032052	0.044269	9.828897	-0.013860	0.002970	-0.016361				-0.287980	0.105120	65.838356
42665	13462258	0.046037	0.024378	9.822201	-0.010917	-0.007206	0.004524	0.269069	-0.254079	-0.966201	-0.289543	0.104091	65.839013
42669	13462283	0.042817	0.039376	9.828986	-0.001380	0.011060	0.006618				-0.289739	0.105680	65.839953
42672	13462308	0.057865	0.020554	9.848347	-0.017934	0.007890	-0.021985				-0.292699	0.105046	65.837137
42676	13462333	0.030443	0.048583	9.828872	0.004780	0.008065	-0.016011				-0.292019	0.106189	65.834830
42679	13462358	0.050711	0.054332	9.830358	-0.000145	0.009723	-0.001498	0.269565	-0.255073	-0.966221	-0.292040	0.107581	65.834616
42683	13462383	0.026675	0.045725	9.823381	0.003991	-0.008565	0.002766				-0.291468	0.106356	65.835017
42686	13462408	0.044702	0.016300	9.827698	-0.016564	-0.000162	0.002049				-0.291414	0.107215	65.835846
42690	13462433	0.041653	0.028491	9.841365	-0.005063	-0.001496	0.004740				-0.292138	0.107004	65.836525
42693	13462458	0.044462	0.024637	9.818079	0.008330	0.013465	-0.005375	0.269522	-0.255079	-0.967706	-0.290947	0.108928	65.835745
42697	13462483	0.045678	0.008503	9.845569	0.007161	0.019513	0.002664				-0.289920	0.111725	65.836119
42700	13462508	0.023003	0.018702	9.826178	-0.004427	-0.002229	0.011109				-0.287812	0.105459	65.837675
42704	13462533	0.037885	0.020256	9.838622	-0.009309	-0.011128	0.007412				-0.289144	0.103871	65.838753
42707	13462558	0.055217	0.023412	9.846962	-0.004447	0.000493	-0.009756	0.269015	-0.255076	-0.968698	-0.289783	0.103934	65.837354
42711	13462583	0.059148	0.031353	9.825012	-0.011411	0.011276	-0.005533				-0.291419	0.105545	65.836548
42714	13462608	0.047018	0.036878	9.842753	0.007682	0.001560	-0.017413				-0.284470	0.105009	65.835246
42718	13462633	0.067544	0.023657	9.842931	0.001395	-0.012602	-0.010410				-0.284273	0.103196	65.833770
42721	13462658	0.076851	0.031890	9.830613	0.003697	0.006673	-0.002433	0.268070	-0.254070	-0.967690	-0.283744	0.104150	65.833418
42725	13462683	0.043945	0.036691	9.833129	0.003569	0.018257	0.003491				-0.283232	0.106768	65.833903
42728	13462708	0.044198	0.028451	9.833147	-0.007217	0.016442	-0.006111				-0.283225	0.106177	65.831735
42732	13462733	0.049837	0.018020	9.833224	0.001156	0.007978	0.021717				-0.283054	0.107335	65.834838
42735	13462758	0.049773	0.023325	9.830459	0.000551	0.013685	0.000164	0.269518	-0.254092	-0.967188	-0.282975	0.109296	65.834847
42739	13462783	0.062998	0.034294	9.855202	-0.004908	0.014703	0.007176				-0.283676	0.111407	65.835858
42742	13462808	0.049793	0.039244	9.835899	-0.012010	-0.009018	-0.024784				-0.281001	0.108669	65.831802
42746	13462833	0.028510	0.009478	9.835845	-0.002906	-0.004648	-0.014852				-0.281421	0.107992	65.829676
42749	13462858	0.058102	0.024636	9.818172	-0.000137	-0.002882	0.009356	0.269527	-0.254585	-0.967200	-0.281438	0.107586	65.831024
42753	13462883	0.069985	0.033093	9.827826	0.002967	0.014931	0.003442				-0.281012	0.109727	65.831497
42756	13462908	0.044426	0.025885	9.835893	-0.002244	0.003029	-0.003745				-0.279274	0.108192	65.831490
42760	13462933	0.058537	0.013928	9.814100	-0.002451	-0.013803	0.006253				-0.279624	0.106220	65.832408
42763	13462958	0.031188	0.013421	9.831733	-0.008123	-0.006671	-0.012808	0.267620	-0.255539	-0.967727	-0.280791	0.105255	65.830574
42767	13462983	0.043063	0.008298	9.851034	-0.007161	0.008535	0.010554				-0.281814	0.106485	65.832074
42770	13463008	0.041781	0.028229	9.818043	-0.021659	0.004885	-0.009482				-0.280283	0.106152	65.829687
42774	13463033	0.055372	0.024712	9.834605	-0.011165	-0.002402	-0.003670				-0.281884	0.105805	65.829163
42777	13463058	0.055392	0.035529	9.834584	0.005180	-0.026043	-0.016698	0.268108	-0.254558	-0.966712	-0.281146	0.102063	65.826782
42781	13463083	0.053658	0.035385	9.824969	-0.006470	0.010546	-0.015487				-0.282077	0.103563	65.824562
42784	13463108	0.067425	0.041045	9.833274	-0.006242	-0.013816	0.003585				-0.279878	0.099378	65.828849
42788	13463133	0.049756	0.036368	9.831800	-0.024806	-0.010784	0.009838				-0.283429	0.097840	65.830266
42791	13463158	0.041604	0.023115	9.841378	-0.008221	0.008228	-0.002189	0.269035	-0.254579	-0.967697	-0.284607	0.099017	65.829946
42795	13463183	0.026906	0.018859	9.834428	-0.007738	0.008485	-0.000852				-0.285715	0.100232	65.829811
42798	13463208	0.047161	0.025751	9.823580	-0.003441	0.004971	-0.021318				-0.282852	0.099274	65.824618
42802	13463233	0.052474	0.022027	9.842814	-0.002274	0.010744	0.004351				-0.283176	0.100816	65.825240
42805	13463258	0.026850	0.025431	9.831667	-0.009812	0.000539	-0.013293	0.269527	-0.254585	-0.967200	-0.284585	0.100884	65.823327
42809	13463283	0.029327	0.027221	9.831679	0.017472	0.026372	0.005667				-0.282081	0.104666	65.824127
42812	13463308	0.036275	0.027111	9.824872	0.003465	0.005066	-0.016329				-0.282020	0.100874	65.820916
42816	13463333	0.046190	-0.002671	9.827781	-0.024067	0.004527	-0.004570				-0.285468	0.101519	65.820250
42819	13463358	0.041967	0.005435	9.842796	-0.020176	0.009708	-0.011583	0.270951	-0.254117	-0.967181	-0.288361	0.102901	65.818581
42823	13463383	0.037410	0.027106	9.833111	-0.009072	0.013469	-0.003347				-0.289661	0.104828	65.818094
42826	13463408	0.027934	0.017471	9.850892	-0.008956	0.027916	-0.018421				-0.283964	0.108730	65.816660
42830	13463433	0.038187	0.002747	9.845535	-0.019224	-0.016868	-0.019886				-0.286723	0.106300	65.813828
42833	13463458	0.049952	0.023306	9.823603	0.005417	0.000867	0.007367	0.269507	-0.255082	-0.968201	-0.285945	0.106429	65.814877
42837	13463483	0.043086	0.024247	9.816702	-0.009729	0.009052	-0.006270				-0.287341	0.107721	65.813975
42840	13463508	0.052470	0.034091	9.831816	-0.006655	0.001223	0.002800				-0.285019	0.106595	65.814771
42844	13463533	0.043166	0.011214	9.841431	0.013973	0.009216	0.011785				-0.283015	0.107923	65.816451
42847	13463558	0.022241	0.041660	9.850782	0.000043	0.012681	-0.014053	0.269086	-0.256546	-0.967248	-0.283012	0.109729	65.814425
42851	13463583	0.039294	0.006985	9.833175	-0.008030	0.003794	0.002588				-0.284162	0.110275	65.814793
42854	13463608	0.034790	0.025610	9.833093	0.000961	0.012207	0.017078				-0.281087	0.110843	65.815960
42858	13463633	0.029327	0.040411	9.841234	-0.008798	-0.005178	-0.005898				-0.282349	0.110097	65.815124
42861	13463658	0.052579	0.030001	9.824967	-0.001332	0.002381	0.010954	0.269603	-0.255560	-0.965243	-0.282537	0.110446	65.816684
42865	13463683	0.022647	0.025349	9.817912	-0.009993	0.019084	0.006972				-0.283966	0.113185	65.817672
42868	13463708	0.029838	0.017681	9.852283	0.006616	-0.018367	0.000839				-0.279562	0.106422	65.817151
42872	13463733	0.036649	0.010841	9.824925	-0.004213	-0.000669	-0.011501				-0.280168	0.106318	65.815502
42875	13463758	0.042883	0.035089	9.826263	-0.008513	0.008112	-0.003727	0.269536	-0.255077	-0.967211	-0.281389	0.107477	65.814966
42879	13463783	0.032119	0.021635	9.842693	0.003068	0.007816	-0.008814				-0.280951	0.108591	65.813687
42882	13463808	0.025709	0.036423	9.816543	0.009647	-0.016856	-0.010321				-0.278264	0.105855	65.814480
42886	13463833	0.028204	0.029747	9.831660	0.012025	0.003174	-0.009453				-0.276544	0.106303	65.813128
42889	13463858	0.030925	0.030948	9.831684	-0.001588	-0.010702	0.018233	0.269073	-0.255067	-0.966719	-0.276767	0.104783	65.815744
42893	13463883	0.040721	0.015008	9.813965	-0.001702	0.003196	0.004305				-0.277009	0.105244	65.816349
42896	13463908	0.024100	0.010712	9.834440	-0.003584	0.022484	0.001898				-0.273668	0.107180	65.814730
42900	13463933	0.046062	0.014859	9.818115	-0.015277	0.014602	0.009240				-0.275854	0.109277	65.816043
42903	13463958	0.037100	0.005390	9.818093	-0.008635	-0.017557	0.013202	0.269589	-0.255563	-0.965738	-0.277087	0.106772	65.817947
42907	13463983	0.045781	0.025747	9.837288	-0.009520	-0.005022	0.001356				-0.278450	0.106053	65.818126
42910	13464008	0.040372	0.020470	9.850979	-0.000454	0.001620	-0.009921				-0.274225	0.105519	65.817155
42914	13464033	0.038066	0.013310	9.822183	-0.021364	-0.009799	-0.000581				-0.277286	0.104115	65.817082
42917	13464058	0.033295	0.029592	9.830321	-0.005899	0.016019	0.002205	0.270482	-0.254601	-0.967195	-0.278130	0.106411	65.817385
42921	13464083	0.054444	0.001987	9.830564	0.002524	-0.001033	0.003029				-0.277768	0.106265	65.817817
42924	13464108	0.054229	0.016520	9.825031	-0.003746	-0.008753	-0.001547				-0.276860	0.102500	65.817318
42928	13464133	0.051477	0.003195	9.844250	-0.002687	0.002804	-0.006956				-0.277246	0.102897	65.816311
42931	13464158	0.070422	0.018012	9.815527	-0.012237	0.001976	-0.010055	0.271414	-0.254128	-0.967674	-0.279002	0.103173	65.814876
42935	13464183	0.054292	0.014011	9.833259	0.002825	-0.002362	-0.001802				-0.278597	0.102833	65.814618
42938	13464208	0.064866	0.035648	9.831897	0.000598	-0.017650	-0.010191				-0.275388	0.098553	65.813808
42942	13464233	0.047355	0.013910	9.831846	0.010343	0.004157	-0.000188				-0.273906	0.099148	65.813788
42945	13464258	0.037917	0.008325	9.842777	0.002354	-0.002992	0.005513	0.269538	-0.253595	-0.966187	-0.273568	0.098723	65.814579
42949	13464283	0.036270	0.039328	9.839921	0.007227	-0.012228	-0.022192				-0.272538	0.096957	65.811409
42952	13464308	0.050013	0.018073	9.837339	0.003159	-0.011344	-0.003381				-0.269546	0.094816	65.813905
42956	13464333	0.069057	0.003402	9.833399	-0.003460	0.020406	-0.001840				-0.270042	0.097737	65.813636
42959	13464358	0.028372	0.005260	9.837230	-0.006433	0.013822	-0.002280	0.269561	-0.254085	-0.965703	-0.270964	0.099715	65.813292
42963	13464383	0.060941	0.008665	9.837444	-0.004680	0.008200	-0.001794				-0.271634	0.100889	65.813023
42966	13464408	0.044449	0.028708	9.823549	0.006165	0.006230	0.003849				-0.265885	0.096903	65.810684
42970	13464433	0.059374	0.023306	9.833270	-0.007518	0.001393	-0.001359				-0.266962	0.097102	65.810492
42973	13464458	0.048643	0.029992	9.822213	-0.003685	-0.008015	-0.001881	0.270034	-0.254588	-0.966208	-0.267490	0.095953	65.810219
42977	13464483	0.040848	0.025931	9.811191	0.010598	-0.018470	0.007401				-0.265970	0.093312	65.811291
42980	13464508	0.028340	0.029395	9.813828	-0.016859	-0.000435	-0.007409				-0.267415	0.095117	65.808882
42984	13464533	0.041890	0.023051	9.816694	-0.004272	-0.000486	0.004329				-0.268026	0.095050	65.809490
42987	13464558	0.044499	0.027064	9.830405	-0.012735	0.000551	-0.007771	0.269536	-0.255077	-0.967211	-0.269852	0.095124	65.808392
42991	13464583	0.044514	0.024574	9.833163	0.001161	0.002357	-0.004031				-0.269686	0.095459	65.807806
42994	13464608	0.060194	0.044916	9.809892	-0.000833	0.025031	-0.002818				-0.265290	0.094125	65.809046
42998	13464633	0.018482	0.029227	9.848042	-0.026534	0.009702	-0.007467				-0.269092	0.095510	65.807962
43001	13464658	0.056272	0.044779	9.835924	-0.010772	-0.000748	-0.007780	0.268600	-0.254564	-0.966214	-0.270637	0.095397	65.806849
43005	13464683	0.051552	0.013985	9.816790	0.008963	-0.003158	-0.015244				-0.269357	0.094935	65.804678
43008	13464708	0.033587	0.036208	9.827566	-0.007503	-0.005482	0.027905				-0.268379	0.093024	65.810262
43012	13464733	0.029243	0.048364	9.826118	-0.006044	-0.004192	-0.002493				-0.269245	0.092422	65.809919
43015	13464758	0.029181	0.033700	9.828916	-0.005890	0.023548	-0.011113	0.268099	-0.254065	-0.966700	-0.270091	0.095787	65.808307
43019	13464783	0.032078	0.033676	9.828926	-0.007787	0.005873	0.000906				-0.271207	0.096629	65.808437
43022	13464808	0.026761	0.036214	9.832997	-0.010978	0.001775	0.006776				-0.267222	0.093641	65.807121
43026	13464833	0.017108	0.029697	9.859018	0.005391	-0.011440	-0.002863				-0.266450	0.092001	65.806716
43029	13464858	0.066284	0.026020	9.816850	-0.004372	0.003467	-0.013988	0.270005	-0.254593	-0.967197	-0.267080	0.092488	65.804704
43033	13464883	0.030806	0.031038	9.827572	0.003958	0.002103	-0.001763				-0.266513	0.092788	65.804453
43036	13464908	0.034900	0.017826	9.848208	0.008139	0.015661	-0.001091				-0.263870	0.093632	65.804644
43040	13464933	0.029514	0.036259	9.833020	-0.007936	-0.006208	0.002284				-0.265006	0.092744	65.804981
43043	13464958	0.035093	0.023035	9.826254	0.003554	-0.006486	-0.004476	0.271914	-0.256108	-0.968212	-0.264498	0.091812	65.804335
43047	13464983	0.052614	0.030290	9.834580	0.017761	-0.001206	0.016965				-0.261950	0.091650	65.806771
43050	13465008	0.063320	0.028639	9.836020	-0.024299	-0.004214	-0.000715				-0.264254	0.089567	65.803943
43054	13465033	0.041757	0.032673	9.818028	0.011037	0.005639	-0.006241				-0.262674	0.090370	65.803061
43057	13465058	0.043501	0.004323	9.846936	-0.000897	-0.009733	0.000718	0.270893	-0.254126	-0.969160	-0.262803	0.088976	65.803164
43061	13465083	0.024198	0.018506	9.822066	-0.019202	0.004938	0.004317				-0.265552	0.089687	65.803780
43064	13465108	0.036209	0.020432	9.837224	-0.001216	0.016546	0.007610				-0.257270	0.089248	65.806665
43068	13465133	0.047164	0.022949	9.829070	-0.016132	0.003965	0.015847				-0.259577	0.089827	65.808931
43071	13465158	0.038704	0.043309	9.838545	-0.000989	0.002046	-0.002944	0.270440	-0.253126	-0.967655	-0.259720	0.090118	65.808514
43075	13465183	0.056627	0.027098	9.826382	-0.014839	0.000566	-0.016215				-0.261849	0.090188	65.806191
43078	13465208	0.059033	0.043441	9.830453	-0.016268	0.004064	-0.011788				-0.261646	0.089461	65.807375
43082	13465233	0.052659	0.000549	9.848377	-0.001016	0.021853	-0.012866				-0.261795	0.092583	65.805524
43085	13465258	0.046570	0.046107	9.849557	-0.006443	0.012539	-0.005698	0.269551	-0.255075	-0.966716	-0.262719	0.094376	65.804691
43089	13465283	0.048831	0.028714	9.830437	0.005926	-0.014906	-0.001848				-0.261870	0.092239	65.804436
43092	13465308	0.035004	0.036575	9.824840	0.014073	-0.010687	-0.021225				-0.259682	0.090959	65.799302
43096	13465333	0.048513	0.029825	9.834552	-0.010255	-0.010239	-0.006074				-0.261152	0.089489	65.798427
43099	13465358	0.048408	0.038044	9.831784	-0.000168	-0.010140	-0.022359	0.269560	-0.255567	-0.966728	-0.261181	0.088022	65.795243
43103	13465383	0.028002	0.039022	9.826154	-0.001538	-0.002946	-0.011717				-0.261404	0.087592	65.793564
43106	13465408	0.057760	0.046035	9.831807	-0.023517	0.003195	-0.013889				-0.260550	0.084392	65.792972
43110	13465433	0.030743	0.042751	9.820661	-0.025134	-0.006770	-0.003061				-0.264151	0.083420	65.792541
43113	13465458	0.053634	0.042160	9.826311	-0.006230	0.014962	0.001742	0.269082	-0.255559	-0.966730	-0.265043	0.085565	65.792783
43117	13465483	0.056869	0.017801	9.826410	-0.010797	-0.002205	0.002430				-0.266589	0.085250	65.793122
43120	13465508	0.048382	0.033969	9.833158	-0.006558	0.003831	-0.003588				-0.263051	0.083739	65.790555
43124	13465533	0.030691	0.042770	9.834380	-0.027072	-0.012195	-0.015981				-0.266932	0.081982	65.788279
43127	13465558	0.037905	0.027021	9.827632	-0.012946	-0.016570	0.014226	0.269985	-0.255090	-0.968199	-0.268784	0.079618	65.790319
43131	13465583	0.028058	0.034873	9.822047	-0.007859	0.009115	-0.004005				-0.269910	0.080921	65.789743
43134	13465608	0.061477	0.060813	9.827672	-0.020507	0.011313	-0.008100				-0.270116	0.078977	65.789499
43138	13465633	0.040036	0.040520	9.822109	-0.010680	0.016986	-0.005962				-0.271647	0.081406	65.788627
43141	13465658	0.036373	0.018995	9.849572	-0.006838	-0.000826	-0.007324	0.269925	-0.252630	-0.968635	-0.272628	0.081282	65.787582
43145	13465683	0.051341	0.037926	9.830425	-0.007457	-0.018004	0.017688				-0.273692	0.078716	65.790126
43148	13465708	0.071306	0.047790	9.823668	-0.004277	-0.003749	-0.014575				-0.271217	0.080096	65.784907
43152	13465733	0.036318	0.017753	9.826274	0.007430	0.012822	0.007915				-0.270151	0.081938	65.786027
43155	13465758	0.053916	0.029861	9.830459	-0.019425	0.002031	0.003266	0.269862	-0.253134	-0.971122	-0.272933	0.082231	65.786494
43159	13465783	0.052596	0.019269	9.838726	-0.000516	0.007969	0.000061				-0.273007	0.083373	65.786499
43162	13465808	0.034942	0.035112	9.824837	-0.007996	-0.005351	0.017920				-0.271987	0.076967	65.791606
43166	13465833	0.059400	0.019250	9.826419	-0.015314	0.010048	0.008117				-0.274179	0.078412	65.792769
43169	13465858	0.062044	0.040717	9.829110	-0.017603	-0.009014	0.008526	0.270387	-0.254123	-0.970153	-0.276699	0.077126	65.793995
43173	13465883	0.059459	0.025900	9.819539	-0.011635	0.004716	-0.005840				-0.278367	0.077798	65.793153
43176	13465908	0.039114	0.031094	9.828990	-0.003995	-0.009058	-0.008191				-0.274195	0.075021	65.792807
43180	13465933	0.044247	0.021809	9.845503	-0.007354	0.015362	-0.014287				-0.275251	0.077211	65.790747
43183	13465958	0.028221	0.026806	9.833050	-0.007880	-0.002570	0.012937	0.269511	-0.256069	-0.968719	-0.276377	0.076852	65.792596
43187	13465983	0.036482	0.016379	9.834510	0.002630	0.002988	-0.010280				-0.276003	0.077273	65.791133
43190	13466008	0.051561	0.013737	9.831880	-0.009310	-0.008383	-0.005206				-0.276230	0.074375	65.791064
43194	13466033	0.056668	0.034204	9.824996	0.003082	-0.006822	0.010426				-0.275787	0.073405	65.792555
43197	13466058	0.032291	0.032389	9.824824	0.000013	0.003260	0.001612	0.269033	-0.256060	-0.968721	-0.275784	0.073873	65.792781
43201	13466083	0.039127	0.019301	9.850977	0.012191	-0.014853	0.016370				-0.274035	0.071757	65.795143
43204	13466108	0.034967	0.022844	9.831727	-0.010347	0.002535	-0.014570				-0.273745	0.072703	65.789255
43208	13466133	0.039044	0.019030	9.829028	-0.000998	0.012742	0.009571				-0.273887	0.074535	65.790603
43211	13466158	0.042590	0.035334	9.844080	-0.000918	0.024872	0.004494	0.270457	-0.255593	-0.968703	-0.274017	0.078101	65.791238
43215	13466183	0.026748	0.026828	9.834397	-0.010924	0.006872	-0.002505				-0.275583	0.079083	65.790877
43218	13466208	0.046855	0.028624	9.834542	-0.010093	0.013088	-0.000852				-0.270566	0.075915	65.793472
43222	13466233	0.042970	0.014877	9.838673	-0.014308	0.016901	-0.003120				-0.272616	0.078333	65.793006
43225	13466258	-0.001295	0.018319	9.835607	-0.007409	-0.007443	0.006442	0.270492	-0.255094	-0.967206	-0.273676	0.077272	65.793933
43229	13466283	0.059456	0.025824	9.833259	-0.028715	-0.010699	-0.001003				-0.277789	0.075739	65.793790
43232	13466308	0.049627	0.044702	9.830387	-0.011966	0.000194	-0.004822				-0.273810	0.076336	65.792892
43236	13466333	0.061866	0.037076	9.840106	0.004938	-0.003004	-0.000601				-0.273103	0.075905	65.792807
43239	13466358	0.058136	0.018224	9.841507	0.016500	-0.004798	-0.018169	0.270463	-0.255098	-0.968196	-0.270743	0.075205	65.790206
43243	13466383	0.039940	0.037728	9.835831	-0.016557	0.017948	-0.004525				-0.273116	0.077773	65.789545
43246	13466408	0.041551	0.038041	9.831726	0.003876	0.004798	-0.010759				-0.271157	0.072409	65.788483
43250	13466433	0.037843	0.024284	9.824889	-0.002912	-0.009011	-0.010417				-0.271576	0.071111	65.787001
43253	13466458	0.033598	0.033974	9.827577	0.010154	-0.006765	-0.001626	0.269029	-0.255073	-0.968203	-0.270122	0.070141	65.786769
43257	13466483	0.041838	0.032720	9.820782	0.014414	0.000405	-0.002953				-0.268058	0.070197	65.786349
43260	13466508	0.029533	0.032247	9.833044	-0.006269	-0.007938	0.004494				-0.270246	0.069631	65.786755
43264	13466533	0.050144	0.023235	9.830462	-0.002159	-0.017405	-0.006624				-0.270557	0.067134	65.785818
43267	13466558	0.038963	0.024238	9.824892	-0.017931	0.010633	-0.018914	0.270959	-0.256091	-0.968217	-0.273128	0.068644	65.783107
43271	13466583	0.043127	0.020471	9.822197	0.001907	0.018848	0.017112				-0.272852	0.071356	65.785538
43274	13466608	0.051509	0.014972	9.816778	-0.016971	-0.000654	0.013320				-0.270349	0.066673	65.784552
43278	13466633	0.040540	0.028538	9.826267	0.001954	-0.004710	0.005177				-0.270068	0.066002	65.785305
43281	13466658	0.039126	0.017650	9.827663	-0.008513	0.010112	-0.019903	0.271977	-0.255604	-0.965726	-0.271291	0.067436	65.782443
43285	13466683	0.051206	0.031411	9.835935	-0.004157	-0.001420	-0.000095				-0.271886	0.067233	65.782430
43288	13466708	0.035322	0.007047	9.846883	0.012884	-0.015023	-0.005168				-0.266027	0.066050	65.784155
43292	13466733	0.046045	0.011032	9.837330	-0.004144	-0.000489	0.004603				-0.266620	0.065983	65.784809
43295	13466758	0.046190	0.007112	9.827749	0.002213	-0.007148	-0.006273	0.271525	-0.254604	-0.964221	-0.266304	0.064955	65.783919
43299	13466783	0.047215	0.025855	9.826321	-0.003801	0.001083	-0.018418				-0.266851	0.065097	65.781278
43302	13466808	0.037636	0.020226	9.830387	-0.005242	0.016423	-0.002024				-0.264510	0.065159	65.783593
43306	13466833	0.029429	0.024374	9.834435	0.000016	0.011513	-0.011571				-0.264509	0.066801	65.781937
43309	13466858	0.042075	0.010966	9.816737	0.010616	0.008260	-0.004764	0.271047	-0.254596	-0.964223	-0.262989	0.067981	65.781246
43313	13466883	0.035409	0.009496	9.824920	-0.003687	-0.005507	-0.026181				-0.263522	0.067174	65.777490
43316	13466908	0.054253	0.012773	9.849731	0.004095	-0.014819	-0.005116				-0.259812	0.064056	65.777894
43320	13466933	0.050088	0.023058	9.824980	-0.015648	-0.009789	0.004154				-0.262052	0.062656	65.778492
43323	13466958	0.044997	0.013630	9.822224	-0.009450	-0.020657	0.016302	0.270052	-0.255573	-0.966231	-0.263403	0.059708	65.780835
43327	13466983	0.048450	0.016401	9.834584	-0.010380	0.016291	-0.023128				-0.264894	0.062026	65.777507
43330	13467008	0.063301	0.030275	9.825042	0.003727	0.019895	0.004292				-0.260264	0.059812	65.777684
43334	13467033	0.048336	0.017842	9.831837	-0.004716	0.023437	0.008546				-0.260938	0.063175	65.778891
43337	13467058	0.029964	0.010614	9.823513	-0.006825	-0.006822	0.009662	0.269106	-0.256049	-0.966247	-0.261914	0.062204	65.780277
43341	13467083	0.038752	0.031105	9.842696	-0.011991	0.009321	-0.003850				-0.263632	0.063537	65.779722
43344	13467108	0.043076	0.020400	9.829052	-0.001581	0.018667	-0.002789				-0.260495	0.065252	65.776546
43348	13467133	0.049930	0.021828	9.826345	-0.005788	0.013852	0.000940				-0.261324	0.067236	65.776665
43351	13467158	0.040214	0.029805	9.818031	0.000572	0.017764	-0.007565	0.270081	-0.255569	-0.965241	-0.261243	0.069776	65.775576
43355	13467183	0.054037	0.028839	9.826365	0.014621	-0.009723	-0.008547				-0.259151	0.068378	65.774359
43358	13467208	0.033371	0.041788	9.841257	-0.001219	0.000116	0.006928				-0.260000	0.069187	65.775980
43362	13467233	0.038756	0.031212	9.834476	-0.001781	0.013332	0.009431				-0.260254	0.071103	65.777328
43365	13467258	0.042895	0.033807	9.838601	-0.011708	0.007074	-0.013836	0.270044	-0.253599	-0.965195	-0.261933	0.072107	65.775334
43369	13467283	0.039146	0.036263	9.813890	-0.020461	0.005402	-0.012107				-0.264866	0.072873	65.773605
43372	13467308	0.022760	0.022678	9.830268	-0.015618	0.010253	-0.017655				-0.258947	0.070224	65.771578
43376	13467333	0.016024	0.028106	9.838444	-0.004020	-0.005668	0.001253				-0.259522	0.069413	65.771747
43379	13467358	0.063148	0.026221	9.841516	-0.001019	0.012939	-0.015116	0.269561	-0.254085	-0.965703	-0.259671	0.071256	65.769578
43383	13467383	0.032305	0.022638	9.824856	-0.016285	0.000969	-0.012662				-0.262006	0.071387	65.767766
43386	13467408	0.041474	0.021745	9.846857	-0.013536	0.015922	-0.003527				-0.261410	0.072359	65.767313
43390	13467433	0.051009	0.038039	9.841401	-0.006133	0.003639	-0.009087				-0.262290	0.072874	65.766010
43393	13467458	0.050834	0.031515	9.870219	-0.000994	-0.001411	-0.021912	0.270057	-0.255078	-0.965724	-0.262436	0.072657	65.762869
43397	13467483	0.040398	0.008256	9.868836	-0.015658	-0.000869	0.006407				-0.264678	0.072537	65.763799
43400	13467508	0.039414	-0.001426	9.857898	-0.034192	-0.009575	-0.010911				-0.266538	0.069467	65.759509
43404	13467533	0.042863	0.028591	9.848225	0.001390	0.001864	-0.001745				-0.266339	0.069733	65.759257
43407	13467558	0.028013	0.016305	9.852268	0.000080	0.025682	-0.010680	0.272441	-0.255614	-0.966219	-0.266330	0.073405	65.757718
43411	13467583	0.052176	0.030209	9.841432	0.012337	0.019400	-0.013599				-0.264565	0.076175	65.755748
43414	13467608	0.044251	0.032424	9.831758	-0.009792	0.006233	-0.013107				-0.266846	0.072228	65.756736
43418	13467633	0.025596	0.020165	9.823454	0.004907	0.005756	0.003116				-0.266143	0.073054	65.757187
43421	13467658	0.045844	0.036772	9.813939	0.016370	0.000677	0.003681	0.272388	-0.255129	-0.967692	-0.263797	0.073154	65.757712
43425	13467683	0.042747	0.059576	9.841268	0.004321	-0.010246	-0.019637				-0.263182	0.071673	65.754919
43428	13467708	0.050836	0.052919	9.831750	0.004703	-0.005750	0.005843				-0.258228	0.073162	65.756612
43432	13467733	0.044076	0.042151	9.828997	0.007682	0.007342	-0.003538				-0.257129	0.074212	65.756099
43435	13467758	0.048023	0.058084	9.813878	-0.007893	0.015959	-0.015363	0.270463	-0.255098	-0.968196	-0.258262	0.076488	65.753896
43439	13467783	0.041772	0.036466	9.812528	-0.006320	0.001423	0.002992				-0.259167	0.076694	65.754319
43442	13467808	0.039885	0.031114	9.841350	0.000240	0.030877	-0.002170				-0.254482	0.077488	65.750785
43446	13467833	0.025277	0.037811	9.831614	0.004072	0.008073	0.008005				-0.253897	0.078649	65.751928
43449	13467858	0.040162	0.033895	9.830356	0.004502	0.002873	-0.004582	0.270019	-0.254591	-0.966702	-0.253253	0.079058	65.751264
43453	13467883	0.033784	0.027163	9.828966	0.006668	-0.007723	0.017175				-0.252295	0.077962	65.753733
43456	13467908	0.049923	0.032646	9.827696	0.001775	-0.007653	0.011234				-0.250771	0.076234	65.753307
43460	13467933	0.030262	0.041842	9.854956	0.001675	0.019802	0.000139				-0.250531	0.079070	65.753316
43463	13467958	0.063910	0.080117	9.831739	-0.001119	0.004518	0.000203	0.271954	-0.255114	-0.966210	-0.250692	0.079717	65.753329
43467	13467983	0.045448	0.039476	9.841342	0.002371	0.007248	-0.007139				-0.250354	0.080751	65.752307
43470	13468008	0.043707	0.053814	9.842663	-0.021684	0.016777	0.003023				-0.249709	0.079085	65.756201
43474	13468033	0.029088	0.053732	9.837074	-0.015354	-0.001281	-0.006887				-0.251909	0.078898	65.755229
43477	13468058	0.046522	0.064855	9.826180	-0.009997	0.010860	-0.002860	0.272035	-0.255595	-0.963747	-0.253342	0.080451	65.754806
43481	13468083	0.046771	0.043004	9.830366	-0.027730	0.011145	-0.012961				-0.257317	0.082039	65.752937
43484	13468108	0.033278	0.040609	9.841257	0.006610	0.003877	0.012039				-0.248924	0.080107	65.755511
43488	13468133	0.050601	0.046174	9.848216	-0.011927	0.013933	0.003113				-0.250632	0.082104	65.755952
43491	13468158	0.051003	0.046215	9.827656	0.003797	-0.000909	0.004956	0.271543	-0.255589	-0.964244	-0.250087	0.081977	65.756661
43495	13468183	0.046747	0.047437	9.831728	-0.004482	0.013857	-0.002962				-0.250730	0.083960	65.756216
43498	13468208	0.029478	0.038902	9.833014	-0.018947	-0.012444	0.011487				-0.253643	0.079849	65.756471
43502	13468233	0.037428	0.036428	9.827597	-0.007902	0.002767	-0.009553				-0.254776	0.080239	65.755100
43505	13468258	0.049832	0.041961	9.833139	-0.016920	-0.015786	0.015788	0.271492	-0.253622	-0.964693	-0.257197	0.077988	65.757370
43509	13468283	0.051197	0.031249	9.833193	-0.008045	-0.001313	0.002544				-0.258349	0.077801	65.757741
43512	13468308	0.041844	0.025951	9.844117	0.007458	-0.007807	-0.005437				-0.253642	0.076908	65.756147
43516	13468333	0.064823	0.031316	9.808591	-0.015984	0.007185	0.007863				-0.255930	0.077942	65.757267
43519	13468358	0.064643	0.028997	9.836036	0.003880	-0.000529	0.006376	0.271023	-0.254106	-0.964707	-0.255373	0.077871	65.758187
43523	13468383	0.066529	0.023401	9.820961	-0.014512	-0.010571	0.009461				-0.257450	0.076363	65.759551
43526	13468408	0.059048	0.042024	9.804397	-0.011285	0.019832	0.008391				-0.255011	0.078588	65.759731
43530	13468433	0.039891	0.044445	9.835800	-0.015788	0.019306	0.013781				-0.257269	0.081362	65.761699
43533	13468458	0.053791	0.054201	9.816683	-0.010659	-0.012124	-0.014108	0.270101	-0.255072	-0.964240	-0.258799	0.079616	65.759677
43537	13468483	0.033381	0.025388	9.837201	-0.023182	0.009364	0.000903				-0.262119	0.080958	65.759797
43540	13468508	0.061980	0.028712	9.836002	-0.012642	0.007841	-0.007655				-0.259559	0.077283	65.759996
43544	13468533	0.056663	0.018191	9.841496	0.002968	0.000869	0.010268				-0.259132	0.077414	65.761478
43547	13468558	0.047022	0.027214	9.848249	-0.008820	0.001675	-0.008664	0.271070	-0.255086	-0.963740	-0.260397	0.077648	65.760231
43551	13468583	0.033473	0.033688	9.852261	-0.014272	-0.012295	0.005090				-0.262440	0.075890	65.760968
43554	13468608	0.053877	0.030074	9.840060	-0.008519	0.004110	0.008301				-0.261808	0.077641	65.761556
43558	13468633	0.054874	0.026267	9.838720	0.007448	0.017592	-0.007732				-0.260743	0.080156	65.760425
43561	13468658	0.059157	0.028664	9.833243	-0.016768	0.013578	-0.004838	0.271051	-0.255583	-0.964741	-0.263145	0.082097	65.759727
43565	13468683	0.052562	0.034046	9.831810	-0.003979	-0.004788	-0.015779				-0.263718	0.081401	65.757475
43568	13468708	0.064910	0.007230	9.833362	-0.015567	0.008711	-0.006570				-0.264292	0.079639	65.759507
43572	13468733	0.053991	0.024565	9.835954	-0.011972	0.004835	0.009525				-0.266005	0.080338	65.760876
43575	13468758	0.065908	0.041107	9.845601	-0.001426	-0.005610	0.019434	0.271561	-0.256574	-0.964267	-0.266205	0.079547	65.763661
43579	13468783	0.058473	0.007231	9.818231	-0.003862	-0.006835	-0.001414				-0.266759	0.078567	65.763461
43582	13468808	0.046341	0.005381	9.825002	-0.018030	-0.017668	-0.003389				-0.266235	0.074372	65.760938
43586	13468833	0.066321	0.029011	9.808616	0.011957	-0.005312	-0.004318				-0.264523	0.073608	65.760313
43589	13468858	0.045568	0.029744	9.829036	-0.015692	0.018907	0.003721	0.272035	-0.255595	-0.963747	-0.266770	0.076319	65.760836
43593	13468883	0.039694	0.001572	9.830462	0.000663	-0.012277	-0.000215				-0.266675	0.074560	65.760814
43596	13468908	0.038921	0.018837	9.824904	-0.011247	0.019972	0.018255				-0.265806	0.076265	65.763237
43600	13468933	0.045737	0.021714	9.824946	-0.016712	0.018339	0.005473				-0.268199	0.078896	65.764020
43603	13468958	0.047619	0.017792	9.812641	0.001359	-0.004210	-0.018632	0.270998	-0.255097	-0.966214	-0.268008	0.078280	65.761347
43607	13468983	0.052852	0.035565	9.816727	0.006595	-0.022827	0.012068				-0.267061	0.075019	65.763087
43610	13469008	0.037748	0.017740	9.830398	0.009295	0.005071	-0.000182				-0.263459	0.075301	65.761300
43614	13469033	0.025580	0.020004	9.826184	-0.012361	0.004461	-0.002019				-0.265229	0.075939	65.761011
43617	13469058	0.029397	0.025375	9.831680	-0.015922	0.008267	0.011872	0.270037	-0.255575	-0.966725	-0.267508	0.077131	65.762718
43621	13469083	0.029729	0.003837	9.848214	-0.023809	0.009774	-0.005329				-0.270919	0.078528	65.761938
43624	13469108	0.028242	0.011036	9.835846	0.019012	0.013754	-0.005098				-0.260716	0.073890	65.763716
43628	13469133	0.013739	0.005169	9.843987	0.001508	-0.018661	-0.002424				-0.260501	0.071216	65.763375
43631	13469158	0.018651	0.006497	9.854991	-0.012365	0.015464	-0.007625	0.271069	-0.256568	-0.964765	-0.262273	0.073426	65.762275
43635	13469183	0.021671	0.017192	9.828913	-0.015874	-0.010090	0.022130				-0.264543	0.071995	65.765453
43638	13469208	0.030954	0.017364	9.834457	-0.012296	0.007930	0.001188				-0.264326	0.074014	65.761682
43642	13469233	0.040541	0.002779	9.830460	-0.009646	0.022621	-0.000010				-0.265708	0.077255	65.761667
43645	13469258	0.007042	-0.012755	9.834414	-0.022781	0.003289	0.010243	0.271052	-0.254101	-0.963717	-0.268969	0.077732	65.763126
43649	13469283	0.034839	0.024028	9.830359	-0.023292	0.009415	-0.017746				-0.272309	0.079069	65.760579
43652	13469308	0.039128	0.020321	9.833140	-0.005050	0.007370	-0.004144				-0.268846	0.075411	65.765700
43656	13469333	0.011879	0.028028	9.830183	-0.007658	0.002705	0.005533				-0.269942	0.075802	65.766481
43659	13469358	0.033662	0.012143	9.841352	-0.002144	0.006388	-0.006768	0.270546	-0.254097	-0.964709	-0.270250	0.076713	65.765518
43663	13469383	0.052965	0.015035	9.815418	-0.013210	-0.004847	0.003725				-0.272142	0.076021	65.766043
43666	13469408	0.062568	-0.000963	9.833365	-0.019443	-0.001964	0.014688				-0.273256	0.075836	65.765088
43670	13469433	0.021821	0.014501	9.820694	-0.010741	-0.002660	-0.013205				-0.274797	0.075446	65.763188
43673	13469458	0.029701	0.017576	9.833086	0.005025	0.000954	-0.003773	0.269603	-0.255560	-0.965243	-0.274078	0.075580	65.762648
43677	13469483	0.039218	0.016191	9.819442	-0.007242	0.002973	-0.009422				-0.275117	0.075999	65.761305
43680	13469508	0.052521	0.024534	9.818133	-0.011404	0.022447	-0.003622				-0.274489	0.076158	65.762713
43684	13469533	0.031346	0.005460	9.841358	-0.003594	-0.002880	0.006215				-0.275003	0.075750	65.763602
43687	13469558	0.029854	-0.004140	9.845501	-0.015180	0.003710	-0.013544	0.271523	-0.256086	-0.965245	-0.277180	0.076272	65.761654
43691	13469583	0.028511	0.002634	9.834494	-0.000329	0.016633	-0.017685				-0.277230	0.078642	65.759116
43694	13469608	0.059962	0.000592	9.826498	-0.001399	-0.012626	-0.001605				-0.275307	0.072940	65.760058
43698	13469633	0.044861	0.009610	9.829110	-0.004293	-0.006409	-0.003566				-0.275922	0.072020	65.759546
43701	13469658	0.016230	0.007729	9.833021	-0.017513	0.012603	-0.002088	0.271530	-0.254109	-0.963714	-0.278431	0.073823	65.759238
43705	13469683	0.057008	-0.015679	9.826526	-0.000021	0.021227	0.015184				-0.278431	0.076874	65.761402
43708	13469708	0.061045	0.003198	9.831966	-0.005165	0.007123	0.004186				-0.276110	0.075275	65.757272
43712	13469733	0.042012	0.007214	9.823603	0.024325	0.006668	-0.000198				-0.272626	0.076230	65.757243
43715	13469758	0.058953	0.037071	9.841455	0.004807	0.013462	0.011753	0.271519	-0.255099	-0.964727	-0.271935	0.078166	65.758918
43719	13469783	0.056795	0.005879	9.842910	-0.005671	0.012444	0.012285				-0.272745	0.079957	65.760661
43722	13469808	0.040618	0.007072	9.831823	0.004213	0.008343	-0.003123				-0.268224	0.080468	65.760632
43726	13469833	0.048517	0.012546	9.842833	0.004219	0.009218	-0.018618				-0.267623	0.081776	65.757962
43729	13469858	0.059729	0.022067	9.820932	0.001578	-0.003591	0.009684	0.271528	-0.255591	-0.964739	-0.267395	0.081268	65.759357
43733	13469883	0.037676	0.024332	9.831751	-0.003093	-0.000943	0.004801				-0.267837	0.081136	65.760048
43736	13469908	0.014742	0.006524	9.830279	0.003549	0.029999	0.007485				-0.264588	0.085417	65.762149
43740	13469933	0.061895	0.026116	9.834642	-0.001062	0.013506	0.002004				-0.264740	0.087353	65.762422
43743	13469958	0.060935	0.018105	9.826440	-0.001872	0.000179	-0.008681	0.272031	-0.254608	-0.963229	-0.265010	0.087372	65.761185
43747	13469983	0.040539	0.009460	9.837295	-0.009413	0.006695	-0.002493				-0.266359	0.088330	65.760815
43750	13470008	0.021860	0.022485	9.831637	-0.023165	-0.021453	0.012153				-0.265662	0.082232	65.763600
43754	13470033	0.040176	0.043495	9.824846	0.008141	-0.004883	0.014892				-0.264493	0.081543	65.765735
43757	13470058	0.058716	0.039762	9.844187	0.007978	0.027390	-0.001511	0.271061	-0.254593	-0.963728	-0.263351	0.085465	65.765498
43761	13470083	0.036899	0.016421	9.809826	0.015627	-0.008640	0.015803				-0.261109	0.084238	65.767776
43764	13470108	0.058001	0.020647	9.826411	-0.008203	0.006576	0.007357				-0.262768	0.085426	65.766190
43768	13470133	0.064452	0.036726	9.823661	-0.016741	0.017810	-0.019667				-0.265170	0.087964	65.763365
43771	13470158	0.041864	0.024713	9.838634	0.013295	-0.004302	-0.013854	0.272011	-0.255105	-0.964230	-0.263269	0.087338	65.761388
43775	13470183	0.025440	0.033861	9.842603	0.011109	-0.011185	-0.001946				-0.261678	0.085735	65.761118
43778	13470208	0.021604	0.036030	9.817876	-0.011748	-0.005779	-0.013921				-0.259609	0.083330	65.761673
43782	13470233	0.031137	0.017538	9.828979	-0.001568	-0.007217	0.014947				-0.259831	0.082306	65.763816
43785	13470258	0.043989	0.050108	9.833076	-0.000778	0.006782	0.004701	0.272495	-0.254618	-0.963721	-0.259941	0.083281	65.764489
43789	13470283	0.048506	0.029762	9.840030	-0.009154	-0.005816	-0.003536				-0.261253	0.082445	65.763984
43792	13470308	0.052365	0.036716	9.826311	-0.014423	0.008322	-0.016369				-0.257316	0.080915	65.761854
43796	13470333	0.033254	0.044615	9.830273	0.004426	0.010446	0.009023				-0.256680	0.082417	65.763144
43799	13470358	0.037144	0.068675	9.822006	-0.003977	0.004895	-0.006211	0.271557	-0.255587	-0.963749	-0.257251	0.083115	65.762256
43803	13470383	0.027673	0.048719	9.828859	0.013746	0.016314	0.000630				-0.255282	0.085452	65.762325
43806	13470408	0.011627	0.045339	9.823276	-0.005661	0.012766	0.012951				-0.256268	0.082173	65.763582
43810	13470433	0.027819	0.036139	9.838494	-0.019626	0.009380	-0.006084				-0.259080	0.083512	65.762708
43813	13470458	0.052517	0.038014	9.827686	-0.009120	-0.004868	-0.009772	0.270612	-0.254581	-0.962741	-0.260388	0.082809	65.761309
43817	13470483	0.018105	0.041461	9.849378	-0.012811	0.017110	0.008145				-0.262222	0.085265	65.762469
43820	13470508	0.062665	0.054349	9.840046	-0.010623	0.019000	-0.002596				-0.256838	0.085923	65.761016
43824	13470533	0.040249	0.039039	9.826221	-0.014153	0.004444	-0.003204				-0.258866	0.086557	65.760550
43827	13470558	0.054868	0.056993	9.820795	-0.002974	-0.003296	-0.007531	0.272026	-0.255102	-0.963735	-0.259294	0.086080	65.759479
43831	13470583	0.019921	0.053620	9.826040	-0.004436	-0.005297	-0.027247				-0.259935	0.085304	65.755578
43834	13470608	0.059390	0.028723	9.829132	-0.004128	-0.011161	-0.000180				-0.258614	0.084994	65.760541
43838	13470633	0.021237	0.029625	9.846705	-0.001177	-0.004354	-0.005530				-0.258784	0.084367	65.759758
43841	13470658	0.025143	0.037887	9.846705	0.007857	0.006241	-0.000180	0.271056	-0.255088	-0.964235	-0.257658	0.085261	65.759731
43845	13470683	0.037467	0.041620	9.835793	-0.019492	0.004867	-0.000760				-0.260450	0.085957	65.759619
43848	13470708	0.042851	0.041819	9.841324	-0.019656	-0.009565	-0.011720				-0.258013	0.081165	65.754153
43852	13470733	0.030628	0.047192	9.816540	0.000559	0.003926	-0.013550				-0.257936	0.081719	65.752215
43855	13470758	0.036165	0.043182	9.835790	-0.004643	-0.015597	0.009356	0.270560	-0.254095	-0.964214	-0.258599	0.079491	65.753565
43859	13470783	0.055157	0.050347	9.834525	-0.003810	-0.020440	0.020848				-0.259141	0.076576	65.756574
43862	13470808	0.044427	0.036542	9.833117	-0.010942	-0.003767	0.010230				-0.259852	0.077712	65.754932
43866	13470833	0.033775	0.034014	9.820732	0.021750	-0.019559	-0.003512				-0.256737	0.074908	65.754445
43869	13470858	0.045755	0.029973	9.824922	0.003052	0.010560	-0.006469	0.271054	-0.252619	-0.962692	-0.256301	0.076416	65.753514
43873	13470883	0.057700	0.044901	9.823587	-0.007991	0.009316	-0.004393				-0.257447	0.077748	65.752874
43876	13470908	0.054824	0.044867	9.844138	-0.005612	0.013186	0.016117				-0.254540	0.073458	65.758787
43880	13470933	0.036416	0.032250	9.830338	-0.014669	-0.011353	-0.011267				-0.256643	0.071825	65.757185
43883	13470958	0.045439	0.031138	9.831783	-0.006536	0.020514	0.002137	0.271559	-0.254105	-0.962725	-0.257579	0.074765	65.757467
43887	13470983	0.044481	0.027032	9.833147	-0.013784	0.006858	-0.004889				-0.259554	0.075744	65.756771
43890	13471008	0.064612	0.039735	9.838740	0.001919	-0.009634	0.016288				-0.255342	0.072784	65.759170
43894	13471033	0.064410	0.047480	9.838703	-0.024332	-0.002290	-0.010507				-0.258830	0.072449	65.757669
43897	13471058	0.068588	0.046611	9.835999	0.002472	-0.008968	0.006427	0.272037	-0.254113	-0.962722	-0.258474	0.071169	65.758595
43901	13471083	0.055004	0.043513	9.833181	-0.002332	-0.001231	0.007285				-0.258807	0.070997	65.759631
43904	13471108	0.059314	0.020641	9.829155	-0.006542	0.015005	0.002897				-0.258281	0.072355	65.758275
43908	13471133	0.049434	0.044557	9.834496	-0.015885	0.012453	0.001207				-0.260556	0.074140	65.758436
43911	13471158	0.061488	0.055899	9.838661	-0.005582	0.005214	0.023380	0.271577	-0.255090	-0.962748	-0.261352	0.074902	65.761781
43915	13471183	0.046554	0.043417	9.842721	-0.001122	0.022244	0.012302				-0.261510	0.078096	65.763529
43918	13471208	0.059287	0.020631	9.823672	-0.006738	0.026761	0.000310				-0.259546	0.076619	65.762899
43922	13471233	0.060788	0.030071	9.819550	0.000523	-0.004233	0.001986				-0.259470	0.076013	65.763191
43925	13471258	0.040332	0.035293	9.833097	0.003670	-0.004740	-0.001323	0.270602	-0.255570	-0.963754	-0.258945	0.075334	65.763018
43929	13471283	0.055252	0.051681	9.820805	0.006697	-0.009157	0.000152				-0.257986	0.074022	65.763038
43932	13471308	0.081114	0.041258	9.810045	0.000763	-0.015692	0.006655				-0.255889	0.074339	65.765701
43936	13471333	0.042208	0.008253	9.814013	0.005299	-0.005640	0.013231				-0.255128	0.073539	65.767603
43939	13471358	0.060614	0.022331	9.830542	0.019845	0.014962	0.009137	0.272949	-0.254136	-0.964202	-0.252283	0.075688	65.768893
43943	13471383	0.067246	0.028793	9.837410	-0.008456	0.015700	-0.021446				-0.253499	0.077923	65.765804
43946	13471408	0.069267	0.011566	9.841604	-0.005838	-0.023755	0.013898				-0.249055	0.069035	65.770941
43950	13471433	0.039984	0.023110	9.856441	-0.010616	0.018300	-0.009577				-0.250577	0.071650	65.769547
43953	13471458	0.028443	0.012161	9.827598	-0.006987	0.011157	-0.007091	0.273928	-0.254643	-0.963714	-0.251579	0.073244	65.768530
43957	13471483	0.036261	0.021686	9.845466	-0.003092	-0.004487	-0.002092				-0.252023	0.072600	65.768232
43960	13471508	0.025379	0.026847	9.834409	-0.008722	0.002182	-0.011282				-0.250945	0.073837	65.763836
43964	13471533	0.018356	0.052230	9.834269	-0.017524	-0.000176	-0.007537				-0.253456	0.073807	65.762754
43967	13471558	0.055425	0.013826	9.841491	-0.009681	0.003724	0.021069	0.272469	-0.255610	-0.965229	-0.254839	0.074354	65.765777
43971	13471583	0.040337	0.025885	9.842741	0.001918	-0.004940	0.007278				-0.254563	0.073651	65.766814
43974	13471608	0.026979	0.024278	9.830302	0.001286	-0.006360	0.008689				-0.251996	0.070857	65.766776
43978	13471633	0.027156	0.020329	9.820716	0.020063	-0.000955	0.005351				-0.249121	0.070724	65.767544
43981	13471658	0.041788	0.006897	9.853764	-0.013763	0.006585	0.000545	0.272504	-0.255111	-0.963733	-0.251092	0.071667	65.767620
43985	13471683	0.027015	0.024125	9.833037	-0.011784	-0.015894	-0.010331				-0.252782	0.069384	65.766150
43988	13471708	0.024112	0.034745	9.823383	-0.010651	0.004530	-0.005506				-0.249244	0.069663	65.767859
43992	13471733	0.022703	0.028267	9.843975	-0.002573	-0.000206	0.000437				-0.249612	0.069634	65.767922
43995	13471758	0.022838	0.009519	9.837181	0.010397	0.015834	-0.011288	0.272527	-0.255601	-0.963250	-0.248125	0.071895	65.766296
43999	13471783	0.039092	0.025864	9.830385	0.003751	-0.000347	0.017650				-0.247585	0.071856	65.768826
44002	13471808	0.024246	0.025641	9.827547	0.017853	-0.008751	-0.022921				-0.244163	0.066399	65.761538
44006	13471833	0.026682	0.012172	9.846802	0.000970	0.013444	-0.005728				-0.244025	0.068321	65.760705
44009	13471858	0.025752	0.007967	9.833080	-0.018549	0.007153	-0.011984	0.272064	-0.255590	-0.962757	-0.246684	0.069338	65.758999
44013	13471883	0.019064	0.017273	9.834385	-0.003903	-0.013204	-0.009649				-0.247245	0.067441	65.757619
44016	13471908	0.045967	0.017607	9.827710	-0.016910	-0.001179	0.013332				-0.245467	0.067194	65.763422
44020	13471933	-0.002763	0.008867	9.830153	0.000414	0.003763	-0.010198				-0.245409	0.067727	65.761969
44023	13471958	0.028017	0.027070	9.830309	0.009812	0.016817	-0.011157	0.272571	-0.255594	-0.961765	-0.244006	0.070129	65.760358
44027	13471983	0.024563	0.005369	9.841323	0.005780	-0.010881	0.004385				-0.243177	0.068573	65.760992
44030	13472008	0.022982	0.009120	9.834433	-0.022511	-0.001389	0.003763				-0.244695	0.066093	65.759553
44034	13472033	0.021815	-0.001672	9.824872	-0.013973	0.009952	-0.013359				-0.246699	0.067510	65.757636
44037	13472058	0.047379	0.001510	9.816792	-0.011782	0.022390	0.005046	0.272581	-0.254605	-0.960752	-0.248385	0.070720	65.758342
44041	13472083	0.033877	0.006641	9.815319	-0.012313	0.020279	0.009011				-0.250147	0.073631	65.759622
44044	13472108	0.028719	-0.006722	9.824938	0.010268	-0.000292	-0.000027				-0.242993	0.067181	65.758926
44048	13472133	0.027261	0.002815	9.826255	0.016047	0.003743	-0.007990				-0.240696	0.067712	65.757776
44051	13472158	0.025455	0.032210	9.824764	-0.006117	0.001983	-0.008339	0.271602	-0.254098	-0.961240	-0.241573	0.067991	65.756589
44055	13472183	0.028643	-0.001386	9.834504	-0.009778	0.003989	0.011200				-0.242972	0.068570	65.758174
44058	13472208	0.037640	0.018876	9.835881	-0.008038	0.003646	-0.005920				-0.241397	0.069480	65.757016
44062	13472233	0.031451	0.001467	9.826290	0.002219	0.000839	-0.003548				-0.241080	0.069598	65.756502
44065	13472258	0.074464	0.011557	9.827913	-0.001523	0.007753	-0.009376	0.272071	-0.253614	-0.961226	-0.241300	0.070703	65.755160
44069	13472283	0.043145	0.022802	9.816703	-0.015441	0.010327	-0.003149				-0.243512	0.072180	65.754699
44072	13472308	0.044973	-0.001080	9.825015	-0.002736	0.001873	-0.002311				-0.240002	0.069606	65.756416
44076	13472333	0.052662	0.015141	9.819527	-0.004511	0.014271	0.010470				-0.240646	0.071657	65.757904
44079	13472358	0.033948	0.022849	9.828983	-0.008126	-0.017852	0.001329	0.273016	-0.254620	-0.962234	-0.241810	0.069101	65.758110
44083	13472383	0.020583	0.002684	9.824837	0.005640	-0.003719	-0.005968				-0.241003	0.068564	65.757264
44086	13472408	0.017636	-0.007908	9.855026	0.031029	0.002219	-0.001688				-0.236491	0.068954	65.757379
44090	13472433	0.043203	0.001526	9.834601	-0.015284	0.016899	0.000921				-0.238680	0.071375	65.757510
44093	13472458	0.062045	0.028670	9.818182	-0.012764	0.014761	0.014672	0.272069	-0.255096	-0.962251	-0.240506	0.073498	65.759591
44097	13472483	0.066021	0.035777	9.846995	-0.001238	-0.013109	0.020345				-0.240680	0.071633	65.762521
44100	13472508	0.033742	0.010970	9.853703	-0.001782	-0.000702	0.008695				-0.236868	0.070926	65.759991
44104	13472533	0.024158	0.010551	9.841294	-0.015019	0.008459	-0.016639				-0.239023	0.072127	65.757603
44107	13472558	0.038059	0.002714	9.833187	-0.014034	0.001161	-0.014998	0.272078	-0.255588	-0.962262	-0.241036	0.072285	65.755462
44111	13472583	0.037587	0.024473	9.839970	-0.002964	0.004059	-0.012054				-0.241462	0.072859	65.753727
44114	13472608	0.038867	0.035479	9.853659	0.012684	-0.008421	0.001462				-0.236310	0.067274	65.758577
44118	13472633	0.028351	0.024207	9.841280	-0.004570	-0.019549	-0.016865				-0.236967	0.064464	65.756170
44121	13472658	0.042061	0.008382	9.835940	0.001512	0.000101	0.001359	0.272116	-0.256076	-0.961284	-0.236750	0.064479	65.756368
44125	13472683	0.035054	0.009419	9.835899	-0.004502	0.005074	0.009623				-0.237393	0.065211	65.757748
44128	13472708	0.044680	0.016281	9.822231	-0.006200	-0.001983	-0.004703				-0.234984	0.062826	65.753974
44132	13472733	0.018842	0.002530	9.850883	-0.009109	0.009640	-0.004327				-0.236290	0.064204	65.753339
44135	13472758	0.032191	0.022880	9.842683	-0.012469	0.005870	-0.008450	0.272126	-0.256568	-0.961296	-0.238077	0.065040	65.752123
44139	13472783	0.055092	0.032726	9.826352	-0.006413	0.008765	0.003856				-0.238995	0.066298	65.752671
44142	13472808	0.034852	0.036721	9.848152	0.013733	-0.001252	-0.003807				-0.233674	0.063652	65.752929
44146	13472833	0.058309	0.020617	9.826407	-0.007942	-0.016390	0.015689				-0.234809	0.061314	65.755194
44149	13472858	0.062249	0.018171	9.829193	0.009494	0.004664	-0.019760	0.271152	-0.255567	-0.961277	-0.233452	0.061970	65.752358
44153	13472883	0.053457	0.048964	9.842748	0.000691	0.000852	0.003569				-0.233353	0.062094	65.752871
44156	13472908	0.059478	0.023264	9.820929	-0.013159	0.007078	-0.010996				-0.233178	0.062296	65.751321
44160	13472933	0.021567	0.026847	9.839857	0.003405	-0.006664	-0.020643				-0.232694	0.061329	65.748380
44163	13472958	0.033776	0.031157	9.833078	0.003423	-0.019608	-0.009453	0.272098	-0.255091	-0.961261	-0.232205	0.058515	65.747032
44167	13472983	0.037726	0.031094	9.819388	0.004821	-0.000787	0.011405				-0.231513	0.058409	65.748667
44170	13473008	0.036458	0.010858	9.829034	-0.002278	0.011717	-0.004163				-0.229354	0.058376	65.746931
44174	13473033	0.051225	0.020329	9.826365	-0.019278	0.009187	-0.001110				-0.232115	0.059691	65.746764
44177	13473058	0.059101	0.047618	9.830445	-0.002798	-0.004119	-0.020073	0.270661	-0.254079	-0.960750	-0.232519	0.059089	65.743895
44181	13473083	0.041358	0.032580	9.842713	-0.004581	0.016300	0.002608				-0.233175	0.061426	65.744255
44184	13473108	0.035868	0.039199	9.837171	-0.007673	0.015554	-0.009656				-0.229850	0.059266	65.744128
44188	13473133	0.052494	0.028616	9.840067	-0.002028	0.006498	-0.015146				-0.230143	0.060188	65.741959
44191	13473158	0.033551	0.024314	9.838576	-0.008368	0.005370	0.013399	0.270632	-0.254084	-0.961740	-0.231339	0.060965	65.743871
44195	13473183	0.050446	0.048876	9.835874	-0.006351	0.025532	-0.011098				-0.232251	0.064616	65.742269
44198	13473208	0.040148	0.043298	9.834444	0.000235	0.006585	-0.008993				-0.228886	0.062301	65.742925
44202	13473233	0.022599	0.031018	9.838479	0.010641	0.004223	-0.009575				-0.227364	0.062900	65.741555
44205	13473258	0.059339	0.023409	9.838759	-0.002833	-0.005430	-0.006050	0.272543	-0.254117	-0.961730	-0.227770	0.062119	65.740689
44209	13473283	0.032051	0.029531	9.838540	-0.008841	0.005266	0.000921				-0.229036	0.062874	65.740811
44212	13473308	0.038833	0.041779	9.826203	-0.017886	0.004603	0.000976				-0.228167	0.064491	65.739221
44216	13473333	0.038668	0.041872	9.830316	-0.003901	0.014199	-0.003292				-0.228727	0.066523	65.738748
44219	13473358	0.060469	0.034280	9.831873	0.001737	0.020854	-0.004885	0.273068	-0.255105	-0.960761	-0.228479	0.069507	65.738026
44223	13473383	0.034822	0.045853	9.822053	-0.002046	-0.000598	-0.014994				-0.228774	0.069413	65.735884
44226	13473408	0.053871	0.024550	9.838701	-0.005828	0.003867	0.004543				-0.227503	0.068878	65.738862
44230	13473433	0.061778	0.036905	9.814039	0.001340	0.020722	-0.005488				-0.227312	0.071843	65.738055
44233	13473458	0.057783	0.032808	9.838710	-0.010312	0.015934	0.008748	0.272605	-0.255095	-0.960269	-0.228788	0.074130	65.739302
44237	13473483	0.055278	0.036708	9.827709	-0.008562	-0.008018	0.008482				-0.230012	0.072987	65.740522
44240	13473508	0.065741	0.046343	9.848327	-0.015709	-0.009082	0.000878				-0.228257	0.070796	65.737279
44244	13473533	0.064704	0.019506	9.845652	-0.009978	0.010557	0.010110				-0.229685	0.072314	65.738728
44247	13473558	0.060234	0.041069	9.860653	0.001979	-0.002576	-0.000915	0.273541	-0.255608	-0.961266	-0.229401	0.071945	65.738594
44251	13473583	0.054814	0.039606	9.861982	-0.003913	0.002855	0.002518				-0.229961	0.072355	65.738963
44254	13473608	0.051023	0.042097	9.849613	-0.008835	-0.017527	-0.009598				-0.228819	0.066343	65.738471
44258	13473633	0.032974	0.052397	9.838477	-0.014865	0.011063	-0.007857				-0.230949	0.067924	65.737348
44261	13473658	0.046900	0.046178	9.831744	0.005397	-0.000176	-0.008664	0.272116	-0.256076	-0.961284	-0.230178	0.067893	65.736095
44265	13473683	0.056532	0.036776	9.830459	-0.007294	0.008345	-0.005127				-0.231223	0.069086	65.735359
44268	13473708	0.059431	0.024713	9.827781	-0.004649	-0.003153	-0.009599				-0.228330	0.065905	65.735086
44272	13473733	0.040311	0.031185	9.827632	0.004831	0.003618	-0.000349				-0.227638	0.066423	65.735025
44275	13473758	0.052450	0.038109	9.819460	-0.003673	0.000143	0.012791	0.271123	-0.255571	-0.962267	-0.228162	0.066451	65.736859
44279	13473783	0.037341	0.040669	9.834433	0.007881	0.011308	0.027384				-0.227029	0.068086	65.740782
44282	13473808	0.048648	0.029892	9.834550	-0.001706	-0.012328	-0.004156				-0.226378	0.063933	65.735532
44286	13473833	0.043153	0.028689	9.816689	0.011688	0.008988	-0.003225				-0.224704	0.065219	65.735067
44289	13473858	0.066143	0.031463	9.811348	-0.005355	0.001739	0.009841	0.271606	-0.255085	-0.961758	-0.225470	0.065473	65.736474
44293	13473883	0.066012	0.034125	9.826411	-0.010997	0.002944	0.013365				-0.227043	0.065903	65.738381
44296	13473908	0.060944	0.021851	9.820933	-0.020488	0.003691	-0.013290				-0.224200	0.065687	65.738468
44300	13473933	0.042070	0.018978	9.813964	-0.005868	-0.009286	-0.003068				-0.225041	0.064356	65.738038
44303	13473958	0.041985	0.026986	9.813947	-0.004737	-0.003612	0.004619	0.271615	-0.255577	-0.961770	-0.225718	0.063841	65.738705
44307	13473983	0.060811	0.009908	9.842927	-0.011007	0.003082	0.013094				-0.227293	0.064290	65.740567
44310	13474008	0.046760	0.051404	9.822125	0.000563	0.017022	0.008219				-0.224136	0.064770	65.741792
44314	13474033	0.051131	0.039293	9.815331	-0.004321	0.005262	0.000235				-0.224755	0.065524	65.741822
44317	13474058	0.038920	0.027056	9.822138	-0.003807	0.019720	0.000514	0.271137	-0.255569	-0.961772	-0.225301	0.068349	65.741880
44321	13474083	0.049915	0.013788	9.827728	-0.003853	0.014478	-0.004564				-0.225853	0.070420	65.741209
44324	13474108	0.052186	0.040908	9.835905	0.012462	0.014958	0.006624				-0.222017	0.069000	65.744696
44328	13474133	0.041770	0.018997	9.830417	-0.010122	0.008276	0.001995				-0.223467	0.070186	65.744980
44331	13474158	0.036637	0.006916	9.834539	0.002050	0.005186	0.012879	0.271653	-0.256065	-0.960792	-0.223171	0.070936	65.746810
44335	13474183	0.041947	0.014987	9.824955	0.000122	0.001568	0.004178				-0.223152	0.071163	65.747401
44338	13474208	0.043014	0.024545	9.834517	-0.000554	0.010730	-0.018260				-0.220735	0.072590	65.743511
44342	13474233	0.018514	0.030669	9.826100	-0.008908	0.014685	-0.024940				-0.222016	0.074680	65.739939
44345	13474258	0.025614	0.024173	9.834403	-0.000122	-0.007626	-0.011900	0.271655	-0.254583	-0.959767	-0.222036	0.073581	65.738231
44349	13474283	0.052821	0.020539	9.823620	-0.011350	0.000057	0.015919				-0.223658	0.073598	65.740516
44352	13474308	0.037895	0.010944	9.831799	0.002901	-0.000651	-0.005420				-0.218533	0.071769	65.738060
44356	13474333	0.035078	0.009381	9.840001	-0.021885	0.012094	-0.008424				-0.221669	0.073496	65.736860
44359	13474358	0.047289	0.025796	9.840030	-0.018433	-0.012062	0.003181	0.273088	-0.254608	-0.959760	-0.224309	0.071770	65.737318
44363	13474383	0.046028	0.016450	9.822230	0.005834	-0.009519	0.007007				-0.223472	0.070411	65.738339
44366	13474408	0.048675	0.020448	9.822227	-0.012067	0.010103	-0.013027				-0.224595	0.071283	65.737704
44370	13474433	0.041835	0.013596	9.816726	-0.000994	0.015828	-0.002973				-0.224738	0.073549	65.737261
44373	13474458	0.053594	0.042068	9.844138	-0.016250	0.004238	0.004929	0.273106	-0.255593	-0.959783	-0.227065	0.074159	65.737963
44377	13474483	0.048738	0.021851	9.807135	-0.005399	0.005843	-0.009695				-0.227840	0.074990	65.736566
44380	13474508	0.025464	0.033650	9.828895	0.007890	-0.008310	-0.007106				-0.222032	0.069662	65.737960
44384	13474533	0.032445	0.009596	9.842730	-0.001460	0.003083	0.003441				-0.222240	0.070105	65.738457
44387	13474558	0.032516	0.014826	9.818024	0.000106	0.005288	-0.001404	0.272107	-0.255583	-0.961273	-0.222226	0.070862	65.738256
44391	13474583	0.037694	0.014921	9.829040	-0.000951	0.013094	-0.011350				-0.222364	0.072731	65.736624
44394	13474608	0.038031	0.021708	9.826271	-0.001964	-0.018112	-0.002721				-0.220217	0.067155	65.736484
44398	13474633	0.022877	-0.000003	9.835835	0.006405	0.015710	-0.011131				-0.219301	0.069399	65.734873
44401	13474658	0.015951	0.014698	9.845341	0.000212	0.011340	-0.007872	0.272605	-0.255095	-0.960269	-0.219272	0.071019	65.733737
44405	13474683	0.026902	0.006497	9.841325	-0.016288	0.014655	-0.015506				-0.221608	0.073110	65.731509
44408	13474708	0.013630	-0.010907	9.837175	-0.000696	0.021131	0.002363				-0.216447	0.073974	65.732470
44412	13474733	0.025683	-0.004012	9.841354	0.005272	0.013597	-0.007495				-0.215693	0.075918	65.731394
44415	13474758	0.024228	0.016272	9.844023	0.007010	-0.001159	0.001867	0.273092	-0.255595	-0.960278	-0.214689	0.075752	65.731671
44419	13474783	0.017270	0.017249	9.816541	0.001656	0.019819	-0.005823				-0.214453	0.078588	65.730814
44422	13474808	0.035150	0.015180	9.827650	0.015956	0.008470	0.004943				-0.211677	0.077118	65.730130
44426	13474833	0.037646	0.020316	9.826274	-0.004020	0.018932	-0.000358				-0.212253	0.079829	65.730063
44429	13474858	0.054121	0.024352	9.820886	-0.027093	-0.002438	-0.007743	0.272634	-0.255090	-0.959279	-0.216135	0.079476	65.728954
44433	13474883	0.032216	0.033770	9.824824	-0.003967	-0.006042	0.004287				-0.216703	0.078613	65.729570
44436	13474908	0.028415	0.018578	9.824837	-0.013582	0.004093	0.018801				-0.214782	0.080967	65.730853
44440	13474933	0.021529	0.013441	9.835786	-0.002155	0.003630	0.001219				-0.215091	0.081488	65.731025
44443	13474958	0.024030	0.032271	9.832996	0.002483	0.005482	0.011328	0.272156	-0.255082	-0.959281	-0.214733	0.082279	65.732637
44447	13474983	0.030915	0.015079	9.827626	0.013603	0.012450	0.012323				-0.212782	0.084069	65.734409
44450	13475008	0.010799	0.007743	9.838474	-0.000717	0.004415	-0.010863				-0.212347	0.080103	65.731727
44454	13475033	0.014502	0.014345	9.837099	-0.020908	0.021806	0.000456				-0.215342	0.083227	65.731773
44457	13475058	0.032380	0.010920	9.849591	-0.004339	0.010042	-0.005087	0.272123	-0.254099	-0.959753	-0.215965	0.084662	65.731038
44461	13475083	0.043090	0.017528	9.835913	-0.018220	0.010340	0.002971				-0.218574	0.086145	65.731469
44464	13475108	0.055113	0.032580	9.829094	-0.015759	0.002815	0.003050				-0.213214	0.084919	65.733231
44468	13475133	0.044476	0.024520	9.833157	-0.004452	0.001977	-0.006671				-0.213854	0.085198	65.732282
44471	13475158	0.029332	0.030940	9.849496	-0.008714	0.001006	0.017241	0.272628	-0.255585	-0.959786	-0.215098	0.085352	65.734738
44475	13475183	0.018771	0.021411	9.835732	-0.006002	0.006954	0.001572				-0.215958	0.086349	65.734958
44478	13475208	0.037906	0.020328	9.833138	-0.002004	-0.008352	0.020254				-0.214935	0.083710	65.738069
44482	13475233	0.021617	0.016026	9.839898	-0.000301	-0.009404	-0.002900				-0.214979	0.082361	65.737657
44485	13475258	0.033996	0.013465	9.822154	-0.008532	-0.008659	-0.013456	0.273111	-0.255098	-0.959277	-0.216204	0.081114	65.735731
