// Start Time: Unknown
// Update Rate: Various
// Filter Profile: general (39.15)
// Option Flags: AHS Disabled ICC Disabled 
// Firmware Version: 1.10.0
PacketCounter	SampleTimeFine	Acc_X	Acc_Y	Acc_Z	Gyr_X	Gyr_Y	Gyr_Z	Mag_X	Mag_Y	Mag_Z	Roll	Pitch	Yaw
11046	15125445	0.070916	-0.054147	9.895150	0.002179	-0.006583	-0.021109				-1.072762	-0.081156	35.726750
11050	15125470	0.089883	-0.028499	9.833481	0.003126	0.005190	-0.018533	0.264087	-0.264157	-1.028803	-1.072310	-0.080463	35.724086
11053	15125495	0.107832	-0.039102	9.813072	0.002794	0.008240	-0.004514				-1.071909	-0.079295	35.723417
11057	15125520	0.099876	-0.055394	9.825408	-0.005834	0.000477	-0.012895				-1.069463	-0.084693	35.720952
11060	15125545	0.087465	-0.050049	9.839012	0.001684	0.007004	-0.007395				-1.069220	-0.083709	35.719875
11064	15125570	0.081093	-0.049049	9.818396	-0.010589	-0.009815	0.014064	0.262228	-0.264610	-1.027339	-1.070740	-0.085077	35.721920
11067	15125595	0.081767	-0.025854	9.838896	0.008844	-0.004002	0.030978				-1.069480	-0.085568	35.726366
11071	15125620	0.082023	-0.042317	9.827993	-0.012510	-0.000769	-0.000320				-1.068668	-0.086059	35.721135
11074	15125645	0.086068	-0.052872	9.830793	-0.000893	0.010988	-0.005314				-1.068795	-0.084500	35.720344
11078	15125670	0.072307	-0.054412	9.852648	-0.007585	0.009061	0.018269	0.262757	-0.266585	-1.026888	-1.069885	-0.083153	35.722935
11081	15125695	0.091150	-0.028699	9.818407	-0.011107	0.016220	-0.021583				-1.071472	-0.080888	35.719804
11085	15125720	0.076891	-0.052991	9.829354	-0.000957	-0.002769	0.012513				-1.065302	-0.086046	35.729170
11088	15125745	0.069773	-0.039784	9.810072	0.002261	0.001004	-0.003693				-1.064977	-0.085912	35.728634
11092	15125770	0.103875	-0.042020	9.804821	-0.011128	0.005035	0.002347	0.262270	-0.266085	-1.026879	-1.066572	-0.085185	35.728957
11095	15125795	0.088803	-0.047499	9.823944	-0.003396	0.005203	-0.001726				-1.067058	-0.084444	35.728699
11099	15125820	0.097000	-0.044857	9.815757	-0.016680	0.000276	0.000708				-1.067082	-0.084918	35.725919
11102	15125845	0.086181	-0.040737	9.843102	-0.013250	-0.010356	-0.002894				-1.068980	-0.086409	35.725534
11106	15125870	0.093054	-0.053892	9.837698	0.013937	-0.009929	0.003606	0.262734	-0.266095	-1.027372	-1.066984	-0.087821	35.726081
11109	15125895	0.083686	-0.066387	9.839046	-0.004305	0.004537	0.002848				-1.067601	-0.087164	35.726468
11113	15125920	0.084821	-0.047510	9.836254	-0.003907	-0.008814	-0.009392				-1.064561	-0.090408	35.724490
11116	15125945	0.089057	-0.056873	9.830824	-0.006391	-0.006187	0.009736				-1.065479	-0.091268	35.725906
11120	15125970	0.079210	-0.050199	9.840330	0.000423	0.012070	-0.005664	0.263197	-0.266106	-1.027864	-1.065417	-0.089554	35.725066
11123	15125995	0.091473	-0.044695	9.834905	0.001861	0.003693	0.007446				-1.065152	-0.089006	35.726117
11127	15126020	0.081988	-0.048979	9.819775	0.003922	0.024393	0.012797				-1.062008	-0.087410	35.727226
11130	15126045	0.080407	-0.044619	9.860896	0.006208	-0.004059	-0.012676				-1.061116	-0.088025	35.725420
11134	15126070	0.077873	-0.055401	9.845829	0.020492	0.015454	0.010258	0.264149	-0.265135	-1.027342	-1.058183	-0.085784	35.726853
11137	15126095	0.074954	-0.043218	9.845769	0.024204	0.013541	-0.006266				-1.054715	-0.083862	35.725913
11141	15126120	0.112995	-0.038751	9.835046	0.007765	0.015317	-0.033483				-1.053331	-0.085171	35.723073
11144	15126145	0.075331	-0.073135	9.847244	-0.003967	0.013989	-0.010009				-1.053897	-0.083193	35.721601
11148	15126170	0.098528	-0.052852	9.818530	-0.014466	0.008249	-0.013478	0.262711	-0.264123	-1.026831	-1.055966	-0.082048	35.719643
11151	15126195	0.099569	-0.033688	9.832190	0.004771	-0.008662	-0.011916				-1.055281	-0.083320	35.717966
11155	15126220	0.090575	-0.063705	9.830863	-0.012681	-0.015667	-0.011736				-1.050843	-0.084440	35.717027
11158	15126245	0.086004	-0.058511	9.851382	-0.021264	0.007074	-0.011638				-1.053886	-0.083457	35.715346
11162	15126270	0.088691	-0.042008	9.832135	0.000758	0.011414	-0.001171	0.263179	-0.265121	-1.027841	-1.053777	-0.081826	35.715144
11165	15126295	0.086047	-0.046126	9.836250	-0.001995	-0.001235	-0.014128				-1.054060	-0.082040	35.713123
11169	15126320	0.101173	-0.054035	9.832275	-0.000189	-0.002410	-0.003798				-1.049647	-0.085493	35.712921
11172	15126345	0.098334	-0.040655	9.826724	-0.012809	0.001523	0.000754				-1.051482	-0.085273	35.713023
11176	15126370	0.079785	-0.074554	9.828079	-0.003195	0.003253	-0.004540	0.262763	-0.266091	-1.026382	-1.051939	-0.084819	35.712366
11179	15126395	0.071351	-0.054547	9.829319	-0.005029	0.003745	-0.008287				-1.052657	-0.084305	35.711164
11183	15126420	0.075200	-0.041164	9.823828	-0.017904	0.005402	0.013036				-1.051317	-0.086267	35.712196
11186	15126445	0.065908	-0.053246	9.834761	-0.002284	0.001602	-0.008433				-1.051643	-0.086060	35.710988
11190	15126470	0.087673	-0.071623	9.837720	0.003728	0.012146	-0.007890	0.262281	-0.265095	-1.025866	-1.051107	-0.084341	35.709827
11193	15126495	0.097177	-0.048509	9.819879	0.010967	0.002199	0.014848				-1.049539	-0.083987	35.711947
11197	15126520	0.102406	-0.056572	9.832289	0.001624	0.003691	-0.002618				-1.048121	-0.085346	35.708236
11200	15126545	0.061692	-0.049353	9.848443	-0.013694	-0.006695	0.020701				-1.050087	-0.086251	35.711216
11204	15126570	0.101187	-0.067379	9.829577	-0.003703	0.009574	0.002892	0.262706	-0.264618	-1.027337	-1.050618	-0.084872	35.711613
11207	15126595	0.086558	-0.062644	9.822591	-0.017895	-0.004667	0.007240				-1.053183	-0.085521	35.712664
11211	15126620	0.077809	-0.048852	9.845807	-0.001557	0.010690	-0.013767				-1.045798	-0.085065	35.711722
11214	15126645	0.072442	-0.038373	9.830654	-0.001214	0.000553	-0.003339				-1.045971	-0.084995	35.711240
11218	15126670	0.079216	-0.052906	9.843084	-0.000845	0.013313	-0.010960	0.263188	-0.265613	-1.027853	-1.046090	-0.083117	35.709642
11221	15126695	0.093081	-0.047622	9.810250	-0.009258	0.002275	0.012679				-1.047419	-0.082758	35.711446
11225	15126720	0.125797	-0.051138	9.814605	-0.014515	-0.006574	-0.005308				-1.047260	-0.086763	35.709930
11228	15126745	0.090328	-0.060784	9.836329	-0.002798	0.006272	-0.016828				-1.047657	-0.085909	35.707497
11232	15126770	0.101243	-0.061921	9.829547	0.008887	0.003085	-0.019085	0.263633	-0.264639	-1.028322	-1.046380	-0.085517	35.704763
11235	15126795	0.102363	-0.049953	9.822674	-0.005813	0.003020	-0.004721				-1.047212	-0.085097	35.704082
11239	15126820	0.106073	-0.037588	9.824022	0.011176	0.028199	-0.016636				-1.042631	-0.083206	35.704120
11242	15126845	0.107855	-0.047197	9.828185	-0.005890	-0.001949	-0.000075				-1.043475	-0.083486	35.704119
11246	15126870	0.088780	-0.033927	9.841719	-0.009499	-0.011796	-0.005591	0.264601	-0.266135	-1.028847	-1.044834	-0.085190	35.703350
11249	15126895	0.089033	-0.049915	9.832172	0.015087	-0.013332	-0.013299				-1.042670	-0.087134	35.701478
11253	15126920	0.106796	-0.070163	9.822751	-0.004753	0.007215	-0.004934				-1.042871	-0.085794	35.701953
11256	15126945	0.077718	-0.035648	9.821078	-0.016204	0.022605	0.001365				-1.045192	-0.082553	35.702089
11260	15126970	0.083418	-0.041204	9.818390	-0.019410	-0.005898	-0.000671	0.263224	-0.267583	-1.027899	-1.047972	-0.083399	35.701998
11263	15126995	0.090314	-0.048686	9.815724	-0.000516	0.004797	0.001949				-1.048046	-0.082707	35.702268
11267	15127020	0.083282	-0.040696	9.852670	0.002339	-0.004758	0.010960				-1.042000	-0.088041	35.701757
11270	15127045	0.102322	-0.051241	9.844613	-0.002418	0.002013	-0.004931				-1.042345	-0.087766	35.701041
11274	15127070	0.104780	-0.025503	9.848647	0.007972	-0.004612	-0.008793	0.262290	-0.265588	-1.025878	-1.041201	-0.088449	35.699799
11277	15127095	0.101042	-0.036448	9.845932	-0.004087	-0.018173	0.001849				-1.041787	-0.091047	35.700110
11281	15127120	0.088717	-0.038105	9.844479	-0.013712	-0.008687	-0.019474				-1.039757	-0.091098	35.697312
11284	15127145	0.093916	-0.043338	9.847271	-0.007632	0.005522	-0.015260				-1.040847	-0.090347	35.695107
11288	15127170	0.083411	-0.043396	9.838974	-0.001071	0.001436	0.004984	0.263260	-0.265602	-1.025378	-1.041002	-0.090128	35.695816
11291	15127195	0.106011	-0.022885	9.828093	-0.005370	0.004464	-0.013459				-1.041768	-0.089524	35.693884
11295	15127220	0.077824	-0.030119	9.808722	0.003500	0.011288	-0.013867				-1.037603	-0.093192	35.694094
11298	15127245	0.079284	-0.035698	9.829322	-0.015052	-0.009125	0.002135				-1.039759	-0.094494	35.694423
11302	15127270	0.090091	-0.040714	9.823918	-0.002185	-0.000785	-0.033717	0.263735	-0.268574	-1.027425	-1.040064	-0.094694	35.689595
11305	15127295	0.111957	-0.037983	9.808978	-0.019547	-0.006624	0.002962				-1.042865	-0.095635	35.690029
11309	15127320	0.061669	-0.043780	9.807281	0.013071	0.015974	-0.007088				-1.035475	-0.093866	35.686590
11312	15127345	0.099854	-0.047334	9.817147	0.002395	-0.000438	0.004642				-1.035133	-0.093917	35.687257
11316	15127370	0.079271	-0.044928	9.833461	-0.002724	-0.000991	-0.018685	0.263235	-0.266594	-1.026886	-1.035519	-0.094107	35.684581
11319	15127395	0.101182	-0.048704	9.824030	-0.011371	-0.001505	-0.014199				-1.037144	-0.094360	35.682549
11323	15127420	0.107927	-0.048434	9.811726	0.005816	0.006551	-0.003922				-1.034003	-0.096167	35.684442
11326	15127445	0.084688	-0.022252	9.804624	-0.012489	-0.002266	-0.002863				-1.035792	-0.096499	35.684051
11330	15127470	0.109490	-0.043177	9.826805	-0.018199	-0.029196	-0.001660	0.264187	-0.265623	-1.026363	-1.038398	-0.100685	35.683884
11333	15127495	0.069591	-0.051678	9.827946	0.008146	0.017907	-0.007667				-1.037229	-0.098140	35.682737
11337	15127520	0.084406	-0.042240	9.836231	-0.012615	0.028160	-0.008731				-1.038344	-0.098975	35.680534
11340	15127545	0.085864	-0.046131	9.841743	-0.012402	0.020163	0.009874				-1.040123	-0.096062	35.681897
11344	15127570	0.063814	-0.033046	9.845654	-0.005190	0.024179	-0.010306	0.264172	-0.265625	-1.026858	-1.040863	-0.092626	35.680354
11347	15127595	0.077328	-0.035251	9.853993	0.007617	0.022189	-0.012313				-1.039770	-0.089480	35.678541
11351	15127620	0.091204	-0.039393	9.844501	-0.010672	0.013216	0.001107				-1.037738	-0.090233	35.679347
11354	15127645	0.074974	-0.046318	9.862232	-0.008853	0.004692	0.006352				-1.039007	-0.089544	35.680243
11358	15127670	0.085981	-0.047634	9.840376	-0.016332	0.010948	-0.019120	0.263159	-0.265618	-1.028842	-1.041342	-0.088026	35.677471
11361	15127695	0.102079	-0.053828	9.839137	0.002818	0.027670	-0.010617				-1.040936	-0.084091	35.675880
11365	15127720	0.088991	-0.044735	9.828040	0.001104	-0.010951	-0.002974				-1.036602	-0.088503	35.675222
11368	15127745	0.098478	-0.040910	9.806158	-0.024697	-0.007258	0.000776				-1.040140	-0.089541	35.675355
11372	15127770	0.075099	-0.043611	9.845776	-0.007385	0.006628	0.006811	0.262743	-0.266588	-1.027383	-1.041199	-0.088574	35.676314
11375	15127795	0.079401	-0.046561	9.826612	-0.017250	0.004113	-0.014059				-1.043666	-0.088021	35.674291
11379	15127820	0.084721	-0.047541	9.836250	-0.012659	0.008056	-0.006923				-1.039117	-0.085550	35.673720
11382	15127845	0.098298	-0.047077	9.833606	0.003527	0.003500	-0.006248				-1.038610	-0.085065	35.672817
11386	15127870	0.094034	-0.043438	9.823953	-0.004168	0.019632	-0.011225	0.263253	-0.267578	-1.026909	-1.039204	-0.082283	35.671161
11389	15127895	0.095566	-0.043247	9.830819	0.001217	-0.004159	-0.010033				-1.039028	-0.082905	35.669732
11393	15127920	0.076425	-0.039583	9.837543	-0.005242	-0.002694	0.007832				-1.038935	-0.084144	35.670240
11396	15127945	0.095717	-0.051433	9.823995	-0.005227	-0.002047	-0.011690				-1.039682	-0.084468	35.668582
11400	15127970	0.088557	-0.049127	9.832165	-0.029555	0.026806	0.005452	0.263240	-0.266099	-1.026380	-1.043916	-0.080614	35.669291
11403	15127995	0.106405	-0.044821	9.828164	-0.022733	0.014374	0.000432				-1.047172	-0.078555	35.669314
11407	15128020	0.094462	-0.039391	9.804752	-0.006214	-0.009778	0.005452				-1.041140	-0.084670	35.668640
11410	15128045	0.079433	-0.042443	9.811519	-0.011900	0.001584	-0.007643				-1.042843	-0.084463	35.667540
11414	15128070	0.079669	-0.053050	9.810169	-0.002369	0.007577	-0.015159	0.263284	-0.266092	-1.024895	-1.043180	-0.083418	35.665350
11417	15128095	0.111159	-0.052509	9.826843	-0.010301	-0.042067	0.003108				-1.044656	-0.089434	35.665907
11421	15128120	0.089299	-0.059774	9.808901	-0.012952	-0.007768	0.001588				-1.044800	-0.084516	35.665625
11424	15128145	0.104321	-0.055424	9.815836	-0.010900	-0.019425	-0.006160				-1.046360	-0.087314	35.664794
11428	15128170	0.110542	-0.042827	9.822697	0.006507	-0.001910	0.000133	0.263311	-0.267569	-1.024930	-1.045428	-0.087587	35.664822
11431	15128195	0.086009	-0.039289	9.822509	0.012428	0.009504	-0.004709				-1.043647	-0.086238	35.664125
11435	15128220	0.098430	-0.063457	9.824059	-0.005583	0.018449	0.006093				-1.044213	-0.092997	35.666211
11438	15128245	0.102303	-0.051284	9.837753	0.001301	0.002585	-0.013945				-1.044023	-0.092663	35.664205
11442	15128270	0.113425	-0.056759	9.828249	-0.025180	0.001837	-0.005949	0.263732	-0.266105	-1.025882	-1.047629	-0.092415	35.663350
11445	15128295	0.078155	-0.055769	9.840343	-0.007612	-0.007853	0.004242				-1.048720	-0.093529	35.663976
11449	15128320	0.080667	-0.053008	9.832136	-0.006035	0.026123	-0.018215				-1.043215	-0.089424	35.659955
11452	15128345	0.074971	-0.037028	9.840268	-0.015986	0.008804	-0.021668				-1.045500	-0.088220	35.656831
11456	15128370	0.086106	-0.050134	9.829414	-0.001958	0.002848	0.002705	0.264193	-0.263647	-1.024832	-1.045781	-0.087805	35.657203
11459	15128395	0.085483	-0.067629	9.819862	0.005344	-0.021583	0.008921				-1.045018	-0.090873	35.658543
11463	15128420	0.095761	-0.054186	9.830865	-0.014688	-0.004420	0.007088				-1.045483	-0.091585	35.658844
11466	15128445	0.075395	-0.055789	9.836221	-0.004101	0.000446	-0.003187				-1.046070	-0.091530	35.658394
11470	15128470	0.102485	-0.055196	9.845993	-0.007991	-0.005662	0.008272	0.264259	-0.265612	-1.023889	-1.047217	-0.092319	35.659588
11473	15128495	0.105186	-0.055545	9.830934	-0.015044	0.008190	-0.004485				-1.049371	-0.091158	35.658929
11477	15128520	0.064124	-0.040932	9.845688	0.001955	0.009079	0.012177				-1.042683	-0.096107	35.662642
11480	15128545	0.075514	-0.053354	9.814260	-0.013824	0.002062	0.014171				-1.044667	-0.095775	35.664667
11484	15128570	0.057604	-0.043845	9.840166	0.001165	-0.005855	-0.012386	0.262400	-0.266064	-1.022425	-1.044497	-0.096646	35.662914
11487	15128595	0.076378	-0.028897	9.837506	-0.008063	-0.008245	-0.007029				-1.045650	-0.097845	35.661927
11491	15128620	0.090358	-0.051315	9.825331	0.002261	0.000893	-0.010930				-1.042828	-0.097436	35.660682
11494	15128645	0.077545	-0.033986	9.834783	-0.000121	0.021067	0.014971				-1.042850	-0.094380	35.662773
11498	15128670	0.073925	-0.023538	9.816900	0.001171	-0.020057	-0.005636	0.263332	-0.265591	-1.022904	-1.042681	-0.097267	35.662026
11501	15128695	0.078113	-0.039511	9.815609	0.001992	0.001635	0.003555				-1.042396	-0.097024	35.662527
11505	15128720	0.075245	-0.033156	9.812823	-0.013182	-0.006014	-0.020231				-1.042219	-0.101431	35.658119
11508	15128745	0.067172	-0.041159	9.810050	-0.000051	0.006406	0.006096				-1.042228	-0.100498	35.658979
11512	15128770	0.076685	-0.050350	9.833471	-0.010961	0.001292	0.005506	0.264306	-0.266592	-1.022922	-1.043799	-0.100299	35.659764
11515	15128795	0.087512	-0.051543	9.836276	-0.001827	0.004825	-0.001661				-1.044061	-0.099612	35.659516
11519	15128820	0.099897	-0.051187	9.830885	0.013766	-0.013386	0.013748				-1.038048	-0.103987	35.662266
11522	15128845	0.072748	-0.051781	9.832068	-0.007226	-0.012812	-0.011174				-1.039080	-0.105851	35.660696
11526	15128870	0.101348	-0.051267	9.829518	0.000079	-0.013469	0.010532	0.263814	-0.266586	-1.023420	-1.039072	-0.107753	35.662235
11529	15128895	0.095698	-0.053998	9.836340	0.003693	0.000197	-0.011200				-1.038540	-0.107753	35.660635
11533	15128920	0.109252	-0.049985	9.826827	-0.012749	0.007620	0.010870				-1.037663	-0.107997	35.663513
11536	15128945	0.098581	-0.046090	9.813024	-0.010982	-0.015774	-0.012146				-1.039232	-0.110288	35.661814
11540	15128970	0.113491	-0.068542	9.833776	0.003029	0.013195	-0.003050	0.262377	-0.265574	-1.022909	-1.038797	-0.108406	35.661346
11543	15128995	0.090419	-0.060899	9.826736	-0.006336	-0.001425	0.000392				-1.039705	-0.108609	35.661409
11547	15129020	0.094005	-0.047553	9.825342	-0.004981	0.023763	-0.013715				-1.035476	-0.107091	35.657704
11550	15129045	0.084766	-0.036836	9.815643	-0.010705	0.000885	0.001079				-1.037010	-0.106962	35.657858
11554	15129070	0.088938	-0.048602	9.823940	0.019002	0.004141	-0.017941	0.263389	-0.267063	-1.021949	-1.034283	-0.106415	35.655282
11557	15129095	0.095717	-0.043309	9.825341	0.002961	-0.006995	0.005259				-1.033860	-0.107403	35.656049
11561	15129120	0.091338	-0.039340	9.830782	-0.000808	0.014564	-0.005256				-1.031804	-0.106598	35.654560
11564	15129145	0.110310	-0.036275	9.826787	-0.000034	0.007801	-0.004770				-1.031808	-0.105493	35.653855
11568	15129170	0.110563	-0.031324	9.821285	-0.022174	-0.010058	-0.000295	0.264302	-0.265605	-1.022404	-1.034984	-0.106935	35.653831
11571	15129195	0.110566	-0.055210	9.848793	-0.012980	-0.008823	-0.018726				-1.036839	-0.108247	35.651184
11575	15129220	0.109103	-0.036223	9.844608	-0.009641	-0.013720	0.009653				-1.032443	-0.111916	35.656005
11578	15129245	0.089818	-0.043380	9.848614	-0.009081	0.012326	0.010224				-1.033746	-0.110124	35.657435
11582	15129270	0.095770	-0.049929	9.843188	0.011694	-0.006531	-0.024910	0.264722	-0.265622	-1.024382	-1.032065	-0.111124	35.653889
11585	15129295	0.099534	-0.057965	9.847363	0.001614	0.006600	-0.011545				-1.031830	-0.110208	35.652214
11589	15129320	0.095977	-0.063574	9.825397	-0.003129	0.002091	0.002985				-1.030865	-0.114183	35.651647
11592	15129345	0.100988	-0.044535	9.813042	-0.000018	0.003196	-0.007167				-1.030865	-0.113744	35.650614
11596	15129370	0.090449	-0.067289	9.844582	0.016323	0.005493	0.017360	0.263781	-0.265603	-1.023891	-1.028532	-0.112913	35.653089
11599	15129395	0.078204	-0.054538	9.812922	-0.010616	0.004466	0.006092				-1.030054	-0.112257	35.653949
11603	15129420	0.091649	-0.048688	9.818472	0.003760	0.005555	-0.001231				-1.024255	-0.113260	35.651217
11606	15129445	0.092783	-0.041986	9.829428	-0.000992	0.005727	0.001347				-1.024397	-0.112436	35.651394
11610	15129470	0.109455	-0.061846	9.835094	0.007272	-0.004853	0.023012	0.264315	-0.267084	-1.022934	-1.023362	-0.113073	35.654699
11613	15129495	0.086018	-0.056971	9.840400	-0.001542	0.031918	-0.005448				-1.023582	-0.108515	35.653843
11617	15129520	0.072313	-0.038242	9.836143	-0.005126	-0.000001	-0.005729				-1.022114	-0.114489	35.654797
11620	15129545	0.073525	-0.035731	9.833391	-0.009638	0.016628	-0.000460				-1.023494	-0.112109	35.654682
11624	15129570	0.100903	-0.041909	9.832230	-0.006516	0.011206	0.006795	0.264836	-0.267086	-1.021447	-1.024429	-0.110486	35.655626
11627	15129595	0.079582	-0.058386	9.817052	-0.004610	0.000186	-0.014922				-1.025086	-0.110498	35.653493
11631	15129620	0.081967	-0.046183	9.833482	0.003035	0.011979	-0.006208				-1.020707	-0.106285	35.653839
11634	15129645	0.098092	-0.048747	9.828119	-0.007118	0.024475	-0.000358				-1.021727	-0.102781	35.653728
11638	15129670	0.091545	-0.031489	9.822537	-0.017667	-0.009899	0.002962	0.263832	-0.267571	-1.023443	-1.024258	-0.104191	35.654173
11641	15129695	0.084403	-0.036485	9.837588	0.016049	0.006394	0.009240				-1.021961	-0.103252	35.655481
11645	15129720	0.076700	-0.061138	9.836241	-0.006916	0.017731	-0.010674				-1.022397	-0.103746	35.650495
11648	15129745	0.081007	-0.056900	9.838995	-0.003682	-0.012788	0.000620				-1.022924	-0.105576	35.650609
11652	15129770	0.071201	-0.041060	9.819675	0.005382	0.002787	-0.004783	0.262410	-0.266557	-1.022437	-1.022152	-0.105189	35.649919
11655	15129795	0.093934	-0.039147	9.843143	0.002946	0.003766	-0.001478				-1.021730	-0.104653	35.649698
11659	15129820	0.068393	-0.046440	9.845738	-0.013733	-0.001517	-0.010510				-1.018314	-0.106549	35.649700
11662	15129845	0.088818	-0.049033	9.841768	-0.014086	-0.001305	0.007741				-1.020333	-0.106716	35.650801
11666	15129870	0.074844	-0.031384	9.851222	-0.008348	-0.001156	-0.001495	0.264847	-0.266096	-1.020434	-1.021529	-0.106885	35.650589
11669	15129895	0.088955	-0.043449	9.810205	0.003412	0.005125	-0.013119				-1.021036	-0.106185	35.648695
11673	15129920	0.120065	-0.045667	9.832367	-0.013837	-0.003740	-0.007890				-1.019579	-0.108961	35.649213
11676	15129945	0.076764	-0.054422	9.829367	-0.004332	0.000791	-0.009112				-1.020197	-0.108871	35.647919
11680	15129970	0.079391	-0.050377	9.819777	-0.005901	0.004534	-0.013740	0.265754	-0.266614	-1.022421	-1.021039	-0.108256	35.645934
11683	15129995	0.091763	-0.044575	9.817088	0.005588	0.002316	0.011300				-1.020241	-0.107896	35.647540
11687	15130020	0.099508	-0.036582	9.829456	-0.003256	0.003733	-0.000259				-1.017504	-0.109077	35.643993
11690	15130045	0.084364	-0.017920	9.815579	-0.004989	0.002469	-0.001729				-1.018219	-0.108728	35.643744
11694	15130070	0.106361	-0.035354	9.822637	-0.015877	0.006454	0.001143	0.265294	-0.267591	-1.022446	-1.020493	-0.107801	35.643888
11697	15130095	0.085968	-0.035559	9.811539	-0.012359	0.007521	-0.000836				-1.022263	-0.106726	35.643756
11701	15130120	0.098238	-0.040354	9.826716	0.007287	0.006215	-0.016835				-1.015137	-0.108650	35.643092
11704	15130145	0.093009	-0.055241	9.843190	0.017452	-0.004165	-0.002290				-1.012637	-0.109252	35.642778
11708	15130170	0.076169	-0.039272	9.849874	0.012304	0.012510	0.019482	0.265356	-0.268569	-1.020985	-1.010880	-0.107411	35.645544
11711	15130195	0.111494	-0.051090	9.844680	-0.004461	0.024547	0.002500				-1.011519	-0.103889	35.645832
11715	15130220	0.090062	-0.055506	9.850020	-0.013407	0.016272	-0.001994				-1.011058	-0.106067	35.645037
11718	15130245	0.094486	-0.068851	9.855585	-0.004525	-0.003056	0.015673				-1.011711	-0.106465	35.647288
11722	15130270	0.091138	-0.032549	9.852706	-0.013943	-0.000125	0.004970	0.264865	-0.267081	-1.020457	-1.013709	-0.106470	35.648003
11725	15130295	0.098464	-0.051321	9.834990	-0.001198	-0.010595	0.008363				-1.013883	-0.107966	35.649225
11729	15130320	0.099640	-0.049792	9.841847	-0.001065	0.002910	0.009392				-1.010993	-0.104565	35.649623
11732	15130345	0.096865	-0.038004	9.825331	-0.009149	0.004268	0.007956				-1.012306	-0.103934	35.650750
11736	15130370	0.096711	-0.042059	9.844547	-0.016546	0.006925	0.000133	0.264356	-0.264609	-1.019907	-1.014676	-0.102942	35.650752
11739	15130395	0.091515	-0.039410	9.834902	-0.015391	-0.003006	-0.014532				-1.016877	-0.103409	35.648677
11743	15130420	0.095886	-0.058151	9.829506	-0.009213	-0.009249	0.003237				-1.012659	-0.107813	35.652435
11746	15130445	0.081959	-0.043649	9.834853	-0.018010	-0.003473	-0.007011				-1.015237	-0.108328	35.651437
11750	15130470	0.102366	-0.048701	9.850092	-0.014782	-0.009443	-0.008075	0.264791	-0.264624	-1.021389	-1.017352	-0.109701	35.650306
11753	15130495	0.087686	-0.051680	9.818457	-0.015193	0.002843	-0.000598				-1.019528	-0.109295	35.650205
11757	15130520	0.072543	-0.050345	9.841662	0.000200	0.003642	0.010516				-1.016015	-0.111679	35.649724
11760	15130545	0.090991	-0.027115	9.840343	0.000720	0.013135	0.004512				-1.015913	-0.109786	35.650333
11764	15130570	0.096683	-0.031424	9.843143	-0.025007	-0.005254	-0.005153	0.264785	-0.265118	-1.021896	-1.019493	-0.110552	35.649612
11767	15130595	0.097710	-0.017621	9.829383	-0.004379	0.018166	0.004523				-1.020122	-0.107938	35.650210
11771	15130620	0.086026	-0.040817	9.828007	-0.005026	-0.000194	0.004584				-1.018877	-0.112222	35.650219
11774	15130645	0.090023	-0.032692	9.836226	-0.003876	0.000674	-0.004880				-1.019430	-0.112138	35.649511
11778	15130670	0.065879	-0.041143	9.830616	-0.004533	-0.009829	-0.003099	0.265287	-0.265617	-1.021410	-1.020079	-0.113553	35.649091
11781	15130695	0.108629	-0.022812	9.830847	-0.005391	0.008729	0.000265				-1.020851	-0.112303	35.649110
11785	15130720	0.087457	-0.043528	9.834880	-0.013255	0.008760	0.004604				-1.019091	-0.111733	35.650338
11788	15130745	0.091669	-0.055341	9.834957	-0.000389	-0.000763	0.027242				-1.019155	-0.111773	35.654247
11792	15130770	0.086457	-0.053112	9.819831	-0.012256	-0.014366	0.005950	0.264794	-0.265611	-1.021907	-1.020912	-0.113815	35.655135
11795	15130795	0.073794	-0.045263	9.833434	-0.023694	0.000060	0.005417				-1.024307	-0.113793	35.655913
11799	15130820	0.088913	-0.055469	9.840423	-0.009972	0.006267	0.001509				-1.019597	-0.113723	35.655375
11802	15130845	0.084578	-0.039484	9.837598	-0.010426	0.004506	-0.021166				-1.021084	-0.113131	35.652324
11806	15130870	0.106171	-0.034925	9.840466	0.001891	0.003251	0.006427	0.265267	-0.266114	-1.022411	-1.020815	-0.112649	35.653238
11809	15130895	0.104990	-0.028267	9.822613	0.011927	-0.004190	-0.011320				-1.019104	-0.113278	35.651627
11813	15130920	0.099916	-0.039279	9.810272	-0.000808	-0.011291	0.015742				-1.020813	-0.116264	35.656287
11816	15130945	0.080483	-0.036818	9.829330	-0.004423	0.002015	-0.006898				-1.021445	-0.115993	35.655289
11820	15130970	0.102148	-0.039194	9.832228	-0.013085	0.005487	-0.008066	0.264340	-0.266093	-1.021426	-1.023317	-0.115228	35.654128
11823	15130995	0.077815	-0.046153	9.826593	0.005569	0.022511	0.002438				-1.022520	-0.111997	35.654418
11827	15131020	0.080517	-0.030126	9.838913	-0.004491	-0.009562	-0.007932				-1.018727	-0.119307	35.651440
11830	15131045	0.098276	-0.037979	9.815739	-0.008932	-0.004873	0.003083				-1.020008	-0.119997	35.651895
11834	15131070	0.081045	-0.057082	9.826657	-0.012216	-0.004214	0.010079	0.262918	-0.265079	-1.020420	-1.021761	-0.120575	35.653351
11837	15131095	0.113222	-0.035063	9.821321	-0.007610	-0.013973	0.005588				-1.022853	-0.122562	35.654184
11841	15131120	0.096881	-0.048512	9.829475	0.010242	0.002061	-0.019845				-1.015970	-0.119161	35.650764
11844	15131145	0.099659	-0.037821	9.828096	-0.005303	-0.000918	-0.011501				-1.016727	-0.119321	35.649115
11848	15131170	0.095834	-0.036661	9.825320	-0.001884	-0.020458	-0.003482	0.263893	-0.264598	-1.019414	-1.016996	-0.122260	35.648664
11851	15131195	0.095645	-0.051329	9.850052	-0.003427	-0.009723	-0.015105				-1.017482	-0.123691	35.646524
11855	15131220	0.079564	-0.057050	9.836240	-0.014499	-0.011469	-0.014849				-1.016638	-0.127989	35.647384
11858	15131245	0.092749	-0.039318	9.828050	-0.003156	0.004514	-0.014021				-1.017085	-0.127378	35.645364
11862	15131270	0.079190	-0.042243	9.826596	-0.005722	0.008202	0.020193	0.265344	-0.265608	-1.019431	-1.017911	-0.126152	35.648237
11865	15131295	0.101278	-0.070207	9.830946	-0.007476	0.005691	-0.002325				-1.018981	-0.125343	35.647889
11869	15131320	0.098603	-0.068567	9.835037	0.015129	0.000979	0.002208				-1.012709	-0.129498	35.646432
11872	15131345	0.105473	-0.052361	9.826806	0.010064	-0.018814	0.005114				-1.011269	-0.132179	35.647207
11876	15131370	0.110544	-0.062046	9.830978	-0.013651	0.017871	0.006461	0.264885	-0.266584	-1.019456	-1.013226	-0.129604	35.648089
11879	15131395	0.101065	-0.034024	9.821239	-0.021477	-0.008713	-0.005426				-1.016301	-0.130865	35.647340
11883	15131420	0.103586	-0.026878	9.833567	-0.007126	-0.003365	0.001194				-1.011796	-0.131336	35.647989
11886	15131445	0.084428	-0.036864	9.847193	-0.012130	-0.002050	-0.007987				-1.013531	-0.131650	35.646853
11890	15131470	0.097051	-0.058138	9.845966	-0.008969	0.003776	-0.004457	0.264931	-0.269046	-1.019514	-1.014814	-0.131120	35.646207
11893	15131495	0.103630	-0.045848	9.829523	-0.000255	0.005047	-0.001481				-1.014850	-0.130401	35.645984
11897	15131520	0.075649	-0.061193	9.825272	-0.003575	-0.000840	-0.010376				-1.014875	-0.134592	35.644042
11900	15131545	0.087494	-0.039591	9.801955	-0.003734	0.004870	-0.001673				-1.015409	-0.133899	35.643787
11904	15131570	0.096935	-0.051341	9.836342	-0.004095	0.006337	-0.007714	0.264960	-0.269041	-1.018524	-1.015993	-0.133011	35.642673
11907	15131595	0.090158	-0.046227	9.844515	-0.009683	-0.006138	0.017580				-1.017386	-0.133845	35.645208
11911	15131620	0.083582	-0.056904	9.840396	-0.007430	-0.006756	0.007176				-1.013572	-0.135303	35.643469
11914	15131645	0.099562	-0.027123	9.803371	-0.005202	-0.001626	0.001980				-1.014318	-0.135531	35.643761
11918	15131670	0.078373	-0.062636	9.841734	-0.014883	-0.015484	0.002475	0.264941	-0.268057	-1.018501	-1.016451	-0.137742	35.644164
11921	15131695	0.084681	-0.040885	9.828000	-0.013189	-0.000028	-0.001475				-1.018339	-0.137750	35.643946
11925	15131720	0.096702	-0.044696	9.836319	-0.003856	0.014828	-0.002974				-1.014871	-0.138523	35.646203
11928	15131745	0.083663	-0.058168	9.826673	0.004952	0.001562	0.012717				-1.014166	-0.138267	35.648024
11932	15131770	0.092834	-0.038156	9.828058	-0.014779	-0.004062	-0.009306	0.263964	-0.266068	-1.017964	-1.016280	-0.138873	35.646695
11935	15131795	0.083629	-0.072031	9.847291	-0.024574	0.002724	0.038429				-1.019813	-0.138385	35.652190
11939	15131820	0.087452	-0.047420	9.852728	-0.015469	-0.005704	0.024191				-1.016868	-0.141698	35.649947
11942	15131845	0.087071	-0.037978	9.855435	-0.010134	-0.003378	-0.005978				-1.018318	-0.142197	35.649094
11946	15131870	0.083410	-0.056923	9.837636	0.006565	0.010106	-0.025424	0.264432	-0.265584	-1.017951	-1.017368	-0.140815	35.645424
11949	15131895	0.125691	-0.064472	9.818753	-0.004165	0.007129	0.007255				-1.017967	-0.139775	35.646441
11953	15131920	0.087534	-0.051432	9.830791	0.000288	0.001517	0.000466				-1.017336	-0.142171	35.650970
11956	15131945	0.067227	-0.057238	9.848511	-0.005303	0.002463	0.003241				-1.018096	-0.141810	35.651425
11960	15131970	0.093393	-0.063571	9.819895	0.001763	-0.002778	-0.008382	0.264919	-0.266085	-1.017960	-1.017841	-0.142229	35.650233
11963	15131995	0.083637	-0.061104	9.823942	-0.006409	0.005829	0.003166				-1.018760	-0.141386	35.650673
11967	15132020	0.087693	-0.063480	9.829470	0.004697	0.004366	-0.014661				-1.014237	-0.142664	35.649154
11970	15132045	0.082179	-0.057232	9.832149	-0.016427	0.008042	-0.024226				-1.016581	-0.141573	35.645660
11974	15132070	0.068366	-0.046468	9.823795	-0.005864	0.014375	-0.005591	0.264889	-0.267571	-1.019974	-1.017419	-0.139529	35.644835
11977	15132095	0.094489	-0.067599	9.836387	-0.012349	0.005607	0.008567				-1.019190	-0.138704	35.646046
11981	15132120	0.071514	-0.072143	9.848579	-0.013356	-0.000812	0.012217				-1.016731	-0.140833	35.647054
11984	15132145	0.095928	-0.062172	9.837749	-0.009239	-0.013527	-0.009429				-1.018051	-0.142795	35.645739
11988	15132170	0.083551	-0.073094	9.843184	-0.005220	0.013508	-0.009882	0.265846	-0.266106	-1.018945	-1.018795	-0.140885	35.644287
11991	15132195	0.091438	-0.050071	9.836301	-0.000386	0.013997	-0.026405				-1.018841	-0.138948	35.640476
11995	15132220	0.074300	-0.066625	9.836238	-0.003636	-0.002758	-0.005677				-1.017562	-0.142531	35.644655
11998	15132245	0.072521	-0.044902	9.811471	0.009502	0.016434	0.015119				-1.016206	-0.140139	35.646773
12002	15132270	0.076514	-0.036824	9.830677	0.000656	-0.001873	-0.008054	0.266812	-0.265133	-1.017927	-1.016109	-0.140427	35.645628
12005	15132295	0.072445	-0.057171	9.848546	-0.005978	0.002863	-0.001794				-1.016965	-0.140022	35.645363
12009	15132320	0.079541	-0.050260	9.818399	0.001501	0.001942	0.010180				-1.012419	-0.140245	35.643244
12012	15132345	0.095863	-0.044743	9.806148	-0.007366	-0.003484	0.009853				-1.013478	-0.140719	35.644673
12016	15132370	0.086425	-0.043296	9.815663	0.019734	-0.008933	0.005020	0.266839	-0.266610	-1.017962	-1.010653	-0.141986	35.645412
12019	15132395	0.083604	-0.051703	9.822546	-0.011794	0.001408	-0.008662				-1.012340	-0.141806	35.644170
12023	15132420	0.104809	-0.036501	9.850078	-0.014171	-0.000289	0.006789				-1.010016	-0.143664	35.646106
12026	15132445	0.083525	-0.046087	9.845844	-0.000359	-0.013931	0.016150				-1.010074	-0.145618	35.648456
12030	15132470	0.076939	-0.063905	9.837624	-0.004750	-0.014591	-0.003487	0.266394	-0.267585	-1.017493	-1.010753	-0.147717	35.647996
12033	15132495	0.122671	-0.026812	9.829577	-0.018764	-0.005297	-0.000343				-1.013441	-0.148477	35.647958
12037	15132520	0.106171	-0.025569	9.810268	-0.004999	0.002088	-0.018361				-1.009624	-0.149344	35.644156
12040	15132545	0.118259	-0.021322	9.821309	0.002925	0.002746	0.005281				-1.009207	-0.148937	35.644908
12044	15132570	0.078247	-0.056921	9.830750	0.008439	-0.002441	0.018208	0.264966	-0.267065	-1.016993	-1.008005	-0.149241	35.647520
12047	15132595	0.084944	-0.057202	9.818453	-0.013435	0.008327	0.017285				-1.009935	-0.148005	35.649972
12051	15132620	0.088867	-0.047611	9.807488	-0.012031	0.018226	-0.018381				-1.008882	-0.149498	35.644870
12054	15132645	0.098035	-0.021953	9.811574	-0.015105	0.003538	-0.003159				-1.011045	-0.148999	35.644408
12058	15132670	0.103643	-0.049759	9.829526	0.003539	0.015669	-0.004160	0.265884	-0.266594	-1.017967	-1.010536	-0.146765	35.643767
12061	15132695	0.101161	-0.041865	9.826740	-0.000884	-0.009467	0.003259				-1.010663	-0.148113	35.644261
12065	15132720	0.091687	-0.051547	9.819852	-0.011067	-0.000791	-0.012083				-1.010520	-0.147733	35.644473
12068	15132745	0.104947	-0.042037	9.821284	-0.018650	0.009204	-0.004558				-1.013190	-0.146427	35.643797
12072	15132770	0.104931	-0.035237	9.824008	-0.014518	0.003338	-0.022541	0.266361	-0.266602	-1.017964	-1.015261	-0.146006	35.640565
12075	15132795	0.114406	-0.037591	9.848760	-0.014995	-0.001962	-0.002925				-1.017408	-0.146294	35.640144
12079	15132820	0.106593	-0.045823	9.843254	-0.004274	-0.019714	0.002842				-1.012474	-0.152231	35.641497
12082	15132845	0.099634	-0.051519	9.841852	-0.019714	0.005844	0.003107				-1.015298	-0.151386	35.641914
12086	15132870	0.086185	-0.046269	9.825283	-0.004871	0.001176	-0.013532	0.266877	-0.267098	-1.016984	-1.015991	-0.151252	35.639983
12089	15132895	0.095759	-0.057938	9.833622	0.000924	-0.001253	-0.019789				-1.015851	-0.151482	35.637151
12093	15132920	0.091646	-0.044636	9.839031	0.002873	-0.012329	0.013176				-1.014202	-0.155334	35.641496
12096	15132945	0.099213	-0.037873	9.830843	-0.010942	0.024438	-0.001098				-1.015769	-0.151837	35.641264
12100	15132970	0.097063	-0.033885	9.799255	0.008315	0.004005	0.001349	0.266821	-0.265626	-1.017939	-1.014578	-0.151260	35.641460
12103	15132995	0.094379	-0.054113	9.825361	-0.006266	0.004227	0.019476				-1.015483	-0.150605	35.644230
12107	15133020	0.125077	-0.033546	9.817280	-0.009198	0.026110	0.004399				-1.012227	-0.149801	35.639140
12110	15133045	0.095211	-0.015120	9.821129	-0.005727	-0.001171	0.002180				-1.013048	-0.149963	35.639453
12114	15133070	0.111651	-0.026806	9.819908	0.003013	0.003418	-0.005397	0.267255	-0.265641	-1.019421	-1.012614	-0.149487	35.638677
12117	15133095	0.104998	-0.036392	9.819886	0.003554	0.009510	0.005789				-1.012107	-0.148111	35.639482
12121	15133120	0.120000	-0.042860	9.830991	0.002897	-0.008363	-0.006017				-1.009570	-0.152108	35.640619
12124	15133145	0.119841	-0.021315	9.819948	-0.004987	0.001913	0.010157				-1.010288	-0.151808	35.642058
12128	15133170	0.099198	-0.020381	9.830772	-0.005218	0.002016	-0.002936	0.266834	-0.267105	-1.018468	-1.011034	-0.151527	35.641638
12131	15133195	0.089811	-0.034102	9.828004	-0.005832	0.011030	-0.018455				-1.011862	-0.149994	35.638962
12135	15133220	0.099292	-0.029791	9.810239	-0.000879	0.022057	-0.010939				-1.007114	-0.149085	35.640897
12138	15133245	0.096936	-0.051536	9.832234	-0.015311	0.009531	-0.020410				-1.009300	-0.147771	35.637951
12142	15133270	0.098192	-0.043241	9.839060	-0.001822	0.006561	0.002874	0.265873	-0.267583	-1.018980	-1.009562	-0.146824	35.638344
12145	15133295	0.099527	-0.022722	9.825306	0.018255	-0.011383	0.007930				-1.006950	-0.148434	35.639505
12149	15133320	0.101844	-0.011056	9.830763	-0.006860	0.006905	-0.008234				-1.007835	-0.146387	35.634554
12152	15133345	0.091093	-0.013496	9.847156	0.004566	-0.015458	0.001439				-1.007182	-0.148597	35.634799
12156	15133370	0.097923	-0.037883	9.836308	0.005139	0.015806	-0.002155	0.264919	-0.266085	-1.017960	-1.006444	-0.146339	35.634441
12159	15133395	0.110547	-0.045851	9.833674	-0.014640	-0.000899	0.002237				-1.008542	-0.146462	35.634766
12163	15133420	0.116837	-0.015982	9.818545	-0.000761	0.008024	0.003266				-1.000404	-0.148857	35.636048
12166	15133445	0.103938	-0.027027	9.817116	-0.000374	-0.030397	0.018427				-1.000465	-0.153164	35.638762
12170	15133470	0.092467	-0.022896	9.841712	0.013122	0.001648	-0.015573	0.266877	-0.267098	-1.016984	-0.998579	-0.152967	35.636526
12173	15133495	0.072185	-0.032813	9.823776	0.003061	0.004023	-0.010572				-0.998137	-0.152417	35.635002
12177	15133520	0.087145	-0.037867	9.828006	0.008501	0.016847	0.002447				-0.995921	-0.152737	35.637130
12180	15133545	0.065198	-0.031620	9.845671	-0.002202	0.018816	-0.002205				-0.996235	-0.150048	35.636762
12184	15133570	0.104822	-0.021614	9.837670	-0.006999	-0.015529	-0.015810	0.265898	-0.266591	-1.017472	-0.997231	-0.152311	35.634537
12187	15133595	0.114110	-0.018435	9.834976	0.019242	0.002256	0.024718				-0.994485	-0.151927	35.638075
12191	15133620	0.075239	-0.046362	9.833442	0.002810	-0.007744	-0.007373				-0.992843	-0.154954	35.632033
12194	15133645	0.074090	-0.057267	9.826606	-0.007477	0.003825	-0.001653				-0.993913	-0.154410	35.631789
12198	15133670	0.056871	-0.020847	9.833228	0.016719	0.030015	-0.021933	0.265397	-0.266093	-1.017957	-0.991510	-0.150166	35.628570
12201	15133695	0.104795	-0.037677	9.839097	0.000988	0.010316	-0.017683				-0.991362	-0.148732	35.626001
12205	15133720	0.080697	-0.047510	9.851304	-0.003833	-0.009859	0.000121				-0.985769	-0.153257	35.632142
12208	15133745	0.085757	-0.042230	9.833495	-0.002423	0.021175	-0.000459				-0.986116	-0.150225	35.632020
12212	15133770	0.092618	-0.029833	9.836240	0.001918	0.005662	-0.000502	0.265916	-0.267576	-1.017495	-0.985841	-0.149415	35.631937
12215	15133795	0.085972	-0.036643	9.823889	-0.000860	-0.002374	0.003231				-0.985966	-0.149747	35.632403
12219	15133820	0.108260	-0.067376	9.830991	-0.004831	-0.005807	-0.002432				-0.982840	-0.150884	35.629101
12222	15133845	0.107516	-0.037518	9.837738	0.009990	0.005810	-0.007984				-0.981406	-0.150071	35.627948
12226	15133870	0.095734	-0.053897	9.832244	0.001505	-0.004183	-0.007839	0.265444	-0.267073	-1.016991	-0.981187	-0.150690	35.626832
12229	15133895	0.081772	-0.048835	9.843090	0.003870	0.011577	0.005376				-0.980635	-0.149018	35.627578
12233	15133920	0.102484	-0.056611	9.836401	0.001237	0.006692	0.020976				-0.977599	-0.152076	35.630322
12236	15133945	0.096071	-0.061191	9.813059	-0.028163	-0.007099	0.005475				-0.981635	-0.153080	35.631127
12240	15133970	0.107890	-0.056590	9.826835	-0.005731	0.010499	-0.008588	0.263983	-0.265571	-1.016963	-0.982453	-0.151597	35.629869
12243	15133995	0.103743	-0.040589	9.815791	-0.005274	0.011392	-0.000945				-0.983208	-0.149968	35.629711
12247	15134020	0.106772	-0.049839	9.822699	-0.005183	-0.012270	0.005378				-0.979102	-0.153735	35.631430
12250	15134045	0.073970	-0.054476	9.829350	-0.004998	0.009206	0.000396				-0.979818	-0.152416	35.631464
12254	15134070	0.068654	-0.065455	9.827971	-0.011784	0.010398	-0.001921	0.265395	-0.267575	-1.018982	-0.981505	-0.150931	35.631162
12257	15134095	0.091689	-0.060877	9.830858	-0.006083	0.011118	0.009522				-0.982380	-0.149316	35.632496
12261	15134120	0.089104	-0.061077	9.841815	-0.018480	-0.000226	-0.007747				-0.981360	-0.151418	35.629913
12264	15134145	0.087130	-0.032642	9.827991	-0.003055	0.008771	-0.005053				-0.981796	-0.150174	35.629175
12268	15134170	0.092741	-0.048624	9.833561	0.006193	0.015381	0.005892	0.266839	-0.266610	-1.017962	-0.980911	-0.147957	35.629974
12271	15134195	0.087194	-0.036813	9.832115	-0.010982	0.008062	-0.000305				-0.982484	-0.146803	35.629914
12275	15134220	0.072602	-0.044931	9.830671	0.003713	-0.000456	0.013664				-0.977717	-0.148438	35.633233
12278	15134245	0.083713	-0.065128	9.847275	-0.008899	-0.007656	-0.002143				-0.978991	-0.149539	35.632936
12282	15134270	0.061800	-0.070624	9.848513	0.002909	0.009170	-0.008906	0.266868	-0.266606	-1.016972	-0.978571	-0.148248	35.631641
12285	15134295	0.083204	-0.052746	9.849969	0.005907	0.007957	-0.009382				-0.977721	-0.147131	35.630274
12289	15134320	0.084926	-0.054400	9.834907	-0.010265	-0.005278	-0.017506				-0.978065	-0.149956	35.629099
12292	15134345	0.076597	-0.048948	9.832086	-0.003856	0.007758	0.006028				-0.978619	-0.148830	35.629934
12296	15134370	0.097138	-0.063702	9.825423	-0.013018	0.018460	-0.006898	0.266380	-0.267587	-1.017987	-0.980481	-0.146203	35.628904
12299	15134395	0.077819	-0.048999	9.852670	-0.014044	-0.002234	0.018859				-0.982500	-0.146477	35.631617
12303	15134420	0.090620	-0.066074	9.843211	0.014286	-0.020124	-0.016172				-0.974037	-0.150071	35.625309
12306	15134445	0.095809	-0.056685	9.840475	-0.001721	-0.006579	-0.000365				-0.974284	-0.151014	35.625266
12310	15134470	0.082403	-0.070510	9.840420	-0.008580	-0.008307	-0.021999	0.267335	-0.267603	-1.017983	-0.975504	-0.152257	35.622133
12313	15134495	0.097004	-0.059345	9.844604	-0.003734	0.011157	-0.026043				-0.976029	-0.150723	35.618382
12317	15134520	0.097165	-0.067663	9.821327	-0.012252	0.011832	-0.010909				-0.975732	-0.152925	35.623221
12320	15134545	0.090713	-0.068992	9.819897	0.008889	-0.000937	-0.009838				-0.974455	-0.153083	35.621817
12324	15134570	0.084962	-0.057040	9.818454	-0.005023	0.009151	-0.001080	0.266363	-0.265120	-1.016940	-0.975174	-0.151776	35.621633
12327	15134595	0.096188	-0.067868	9.815809	-0.013900	-0.000900	0.002700				-0.977166	-0.151898	35.622024
12331	15134620	0.097213	-0.050059	9.815772	-0.007664	-0.014466	-0.001585				-0.973256	-0.154378	35.617622
12334	15134645	0.093970	-0.042077	9.836306	-0.010028	0.011747	-0.002535				-0.974691	-0.152702	35.617230
12338	15134670	0.091780	-0.062433	9.828117	-0.020084	0.001727	-0.006609	0.265852	-0.264130	-1.017414	-0.977565	-0.152470	35.616277
12341	15134695	0.106717	-0.063400	9.821357	-0.004272	0.007692	0.004569				-0.978179	-0.151358	35.616913
12345	15134720	0.082468	-0.066630	9.819845	-0.010359	-0.003588	-0.000408				-0.977501	-0.155170	35.616606
12348	15134745	0.098432	-0.051342	9.832239	-0.005752	0.002638	-0.000310				-0.978325	-0.154793	35.616557
12352	15134770	0.075765	-0.073313	9.834901	-0.011034	-0.008635	-0.019902	0.265880	-0.265607	-1.017449	-0.979898	-0.156078	35.613728
12355	15134795	0.098298	-0.043105	9.837706	0.004074	0.001711	0.015210				-0.979320	-0.155796	35.615902
12359	15134820	0.080717	-0.047723	9.840338	-0.007178	-0.000267	-0.002106				-0.978000	-0.157071	35.614132
12362	15134845	0.080772	-0.047569	9.829358	-0.007926	-0.003745	0.004548				-0.979137	-0.157596	35.614790
12366	15134870	0.106554	-0.060527	9.858386	-0.008063	0.000839	-0.012095	0.266387	-0.265610	-1.016457	-0.980288	-0.157505	35.613065
12369	15134895	0.076852	-0.055869	9.848571	-0.020453	-0.016581	-0.005005				-0.983215	-0.159892	35.612385
12373	15134920	0.098405	-0.044651	9.832224	-0.002633	-0.010629	0.008769				-0.976552	-0.160785	35.616509
12376	15134945	0.083543	-0.053080	9.837630	-0.015514	-0.004719	0.009625				-0.978778	-0.161437	35.617900
12380	15134970	0.085386	-0.075854	9.828123	-0.007880	-0.005595	0.018916	0.265394	-0.263624	-1.016415	-0.979915	-0.162193	35.620624
12383	15134995	0.090402	-0.051476	9.832182	-0.006726	-0.011061	-0.012603				-0.980873	-0.163808	35.618849
12387	15135020	0.111478	-0.012108	9.830841	-0.011185	-0.010656	0.007144				-0.980909	-0.168149	35.620929
12390	15135045	0.076070	-0.030185	9.830656	-0.010453	0.018315	0.001930				-0.982407	-0.165521	35.621165
12394	15135070	0.064343	-0.039814	9.819627	-0.007842	0.005044	0.011356	0.265407	-0.265104	-1.016945	-0.983535	-0.164770	35.622782
12397	15135095	0.088694	-0.051545	9.826694	-0.006549	0.021774	-0.005002				-0.984471	-0.161664	35.622010
12401	15135120	0.110550	-0.036149	9.826784	0.013296	-0.009324	0.012311				-0.979055	-0.169751	35.622867
12404	15135145	0.071414	-0.042464	9.821066	-0.008790	-0.010268	0.000614				-0.980315	-0.171220	35.622992
12408	15135170	0.099789	-0.051389	9.815790	-0.002158	0.007138	-0.006114	0.265938	-0.265598	-1.015469	-0.980621	-0.170213	35.622098
12411	15135195	0.091361	-0.040844	9.829415	-0.010206	0.010280	-0.016955				-0.982076	-0.168783	35.619639
12415	15135220	0.098292	-0.052928	9.834991	-0.021403	0.007035	0.011566				-0.981088	-0.168131	35.622973
12418	15135245	0.111766	-0.033502	9.800739	0.007047	0.002180	-0.007552				-0.980075	-0.167838	35.621888
12422	15135270	0.119938	-0.032164	9.798031	0.002839	0.014842	-0.022463	0.265923	-0.265600	-1.015964	-0.979659	-0.165767	35.618635
12425	15135295	0.096793	-0.041823	9.834929	0.005957	0.007448	0.009206				-0.978809	-0.164678	35.619935
12429	15135320	0.088588	-0.034003	9.815660	0.000790	0.010526	0.001098				-0.977460	-0.164887	35.616327
12432	15135345	0.083621	-0.039421	9.825251	-0.002973	-0.015180	0.012550				-0.977891	-0.167030	35.618156
12436	15135370	0.094264	-0.053978	9.837695	0.005139	0.007778	0.003307	0.265469	-0.266082	-1.015483	-0.977157	-0.165908	35.618611
12439	15135395	0.087819	-0.056750	9.833553	0.006129	-0.017387	0.008684				-0.976282	-0.168377	35.619889
12443	15135420	0.137621	-0.045208	9.833863	0.002252	-0.007974	-0.001316				-0.972443	-0.168026	35.619797
12446	15135445	0.100649	-0.020456	9.822566	-0.008057	0.003122	-0.004460				-0.973595	-0.167589	35.619152
12450	15135470	0.098209	-0.036423	9.819850	0.011905	0.008100	-0.003578	0.265417	-0.265596	-1.016956	-0.971888	-0.166438	35.618619
12453	15135495	0.106512	-0.047316	9.813088	-0.011908	0.006366	0.006753				-0.973597	-0.165510	35.619568
12457	15135520	0.083040	-0.024428	9.841649	0.000826	-0.004855	0.022551				-0.967363	-0.171609	35.623122
12460	15135545	0.094001	-0.033863	9.848611	0.001338	-0.008862	-0.004609				-0.967169	-0.172890	35.622483
12464	15135570	0.103395	-0.024636	9.828075	-0.025213	-0.006537	0.006124	0.265871	-0.265114	-1.017437	-0.970783	-0.173811	35.623376
12467	15135595	0.130443	-0.033487	9.835151	-0.016223	0.015327	0.006014				-0.973109	-0.171601	35.624199
12471	15135620	0.095308	-0.047388	9.833585	-0.014478	0.025752	-0.008935				-0.971018	-0.171278	35.622957
12474	15135645	0.099323	-0.025886	9.825314	-0.014584	0.005515	-0.026910				-0.973095	-0.170554	35.619096
12478	15135670	0.082008	-0.035592	9.825218	-0.006483	0.004256	-0.012729	0.267284	-0.265636	-1.018431	-0.974018	-0.169975	35.617258
12481	15135695	0.098104	-0.042009	9.834958	-0.012021	0.008781	-0.015533				-0.975734	-0.168755	35.615015
12485	15135720	0.110085	-0.024108	9.839090	0.008723	0.006537	-0.009118				-0.971547	-0.168914	35.616744
12488	15135745	0.099202	-0.031262	9.815722	-0.006117	0.021797	-0.006345				-0.972420	-0.165808	35.615791
12492	15135770	0.089812	-0.017749	9.836185	0.000776	-0.000705	-0.000879	0.267346	-0.266614	-1.016970	-0.972309	-0.165911	35.615659
12495	15135795	0.093883	-0.024331	9.838975	0.002608	0.002691	-0.005661				-0.971933	-0.165539	35.614843
12499	15135820	0.119944	-0.046968	9.828263	-0.007336	0.003606	-0.005202				-0.971527	-0.166250	35.612713
12502	15135845	0.106217	-0.014976	9.828056	-0.009279	-0.014885	0.008084				-0.972860	-0.168362	35.613915
12506	15135870	0.125161	-0.036115	9.818666	-0.003026	0.012778	-0.008003	0.267426	-0.268577	-1.015532	-0.973290	-0.166552	35.612732
12509	15135895	0.100757	-0.017512	9.833522	-0.001629	-0.015092	0.007175				-0.973526	-0.168696	35.613793
12513	15135920	0.106312	-0.025714	9.828099	-0.014670	-0.008076	0.013660				-0.971474	-0.169368	35.614063
12516	15135945	0.095731	-0.042053	9.815729	-0.004448	-0.000836	0.023238				-0.972121	-0.169431	35.617396
12520	15135970	0.087040	-0.027500	9.823860	-0.013705	0.014083	0.007938	0.266466	-0.267573	-1.015018	-0.974087	-0.167395	35.618493
12523	15135995	0.090013	-0.020496	9.814260	0.001122	-0.004539	0.008528				-0.973930	-0.168024	35.619723
12527	15136020	0.082097	-0.042034	9.830731	0.012593	-0.007202	0.001498				-0.968971	-0.172632	35.619804
12530	15136045	0.088773	-0.043329	9.844499	-0.001393	-0.005215	-0.008029				-0.969167	-0.173398	35.618678
12534	15136070	0.096776	-0.029939	9.833535	-0.008869	-0.012384	-0.014673	0.267436	-0.267587	-1.014519	-0.970431	-0.175207	35.616598
12537	15136095	0.109223	-0.031126	9.814422	-0.014678	0.000632	-0.008504				-0.972530	-0.175137	35.615380
12541	15136120	0.103686	-0.041711	9.839103	-0.008519	-0.006928	-0.006773				-0.967941	-0.178908	35.616839
12544	15136145	0.091448	-0.051470	9.841784	-0.001888	0.006971	-0.012822				-0.968206	-0.177941	35.614984
12548	15136170	0.096848	-0.029778	9.825299	0.005983	-0.005151	-0.009948	0.268426	-0.267105	-1.013018	-0.967344	-0.178703	35.613573
12551	15136195	0.094154	-0.044475	9.822588	0.012009	0.010191	-0.021496				-0.965614	-0.177295	35.610475
12555	15136220	0.107063	-0.032355	9.840483	-0.005719	0.023392	0.013641				-0.966717	-0.177313	35.614197
12558	15136245	0.096910	-0.058197	9.830885	-0.002684	0.022241	0.018463				-0.967109	-0.174083	35.616782
12562	15136270	0.099363	-0.037682	9.844555	-0.003405	0.008659	-0.002092	0.268426	-0.267105	-1.013018	-0.967596	-0.172848	35.616457
12565	15136295	0.102703	-0.054043	9.824048	-0.001951	-0.004302	-0.002655				-0.967874	-0.173471	35.616089
12569	15136320	0.094365	-0.056659	9.834969	-0.002304	0.001937	0.006445				-0.962647	-0.173213	35.616490
12572	15136345	0.110383	-0.037490	9.825417	0.009714	0.003992	0.018725				-0.961263	-0.172596	35.619160
12576	15136370	0.105265	-0.056616	9.821342	0.004165	0.012779	-0.005157	0.267494	-0.267578	-1.012539	-0.960665	-0.170778	35.618385
12579	15136395	0.094743	-0.056823	9.830857	-0.007474	-0.017431	-0.012645				-0.961730	-0.173305	35.616625
12583	15136420	0.098894	-0.075545	9.822726	-0.000565	0.001773	0.000341				-0.957473	-0.173211	35.620387
12586	15136445	0.095689	-0.052723	9.817144	-0.003658	0.012350	0.009102				-0.958001	-0.171420	35.621659
12590	15136470	0.067564	-0.053285	9.822437	-0.000779	-0.018208	-0.016382	0.267474	-0.268075	-1.013541	-0.958106	-0.174067	35.619363
12593	15136495	0.076612	-0.067601	9.836261	0.005572	0.018911	-0.016333				-0.957301	-0.171398	35.616978
12597	15136520	0.106540	-0.059574	9.828204	-0.021899	0.013514	-0.007975				-0.958754	-0.176742	35.618679
12600	15136545	0.094195	-0.037809	9.836285	-0.003257	-0.007579	-0.001830				-0.959220	-0.177832	35.618431
12604	15136570	0.083260	-0.055504	9.844492	0.008033	0.015533	0.006416	0.267981	-0.268079	-1.012548	-0.958072	-0.175592	35.619313
12607	15136595	0.078039	-0.059489	9.851332	0.004882	0.000089	-0.006399				-0.957370	-0.175594	35.618397
12611	15136620	0.066376	-0.089523	9.840374	0.001858	-0.005369	0.002153				-0.953452	-0.175749	35.619424
12614	15136645	0.078201	-0.067880	9.839016	-0.012539	0.010256	-0.011976				-0.955242	-0.174309	35.617681
12618	15136670	0.102752	-0.067406	9.824091	-0.003812	0.002432	0.002033	0.267943	-0.267591	-1.013527	-0.955789	-0.173956	35.617968
12621	15136695	0.084755	-0.060926	9.830807	0.000408	0.022282	-0.016181				-0.955724	-0.170804	35.615596
12625	15136720	0.083671	-0.052909	9.832149	0.003235	-0.006229	-0.001743				-0.951075	-0.176917	35.618996
12628	15136745	0.092088	-0.083740	9.836422	-0.007573	0.001732	0.000976				-0.952160	-0.176667	35.619131
12632	15136770	0.098613	-0.062156	9.843249	-0.009769	-0.010633	0.016999	0.268397	-0.267109	-1.014008	-0.953567	-0.178149	35.621598
12635	15136795	0.115908	-0.050943	9.821389	-0.000848	0.013992	0.008348				-0.953692	-0.176126	35.622758
12639	15136820	0.099781	-0.044707	9.817144	-0.013919	-0.005987	0.006804				-0.951952	-0.177900	35.622327
12642	15136845	0.090562	-0.063473	9.828112	0.011268	0.004081	0.013480				-0.950343	-0.177283	35.624244
12646	15136870	0.094531	-0.073021	9.837769	-0.012656	0.003088	0.018437	0.267972	-0.267586	-1.012537	-0.952164	-0.176797	35.626879
12649	15136895	0.084743	-0.059515	9.837669	-0.007670	0.008784	0.009468				-0.953267	-0.175517	35.628210
12653	15136920	0.070180	-0.075980	9.836236	0.012022	0.000948	-0.003289				-0.947021	-0.176708	35.629884
12656	15136945	0.074380	-0.080081	9.825309	-0.003207	0.011890	0.004540				-0.947482	-0.174995	35.630506
12660	15136970	0.099941	-0.051369	9.815794	0.003439	-0.002684	-0.013962	0.267022	-0.267075	-1.012035	-0.946984	-0.175412	35.628512
12663	15136995	0.102857	-0.067468	9.811761	-0.009245	0.011183	-0.019103				-0.948300	-0.173856	35.625753
12667	15137020	0.085140	-0.066149	9.828089	0.022608	0.002354	0.006381				-0.941307	-0.175841	35.632963
12670	15137045	0.079164	-0.042061	9.827968	0.008337	0.006641	0.002484				-0.940114	-0.174884	35.633307
12674	15137070	0.090547	-0.069117	9.841845	-0.017960	-0.001261	-0.004056	0.268971	-0.267596	-1.011048	-0.942685	-0.175074	35.632734
12677	15137095	0.073108	-0.073487	9.837623	-0.017938	-0.006905	0.001794				-0.945255	-0.176059	35.633006
12681	15137120	0.098450	-0.055668	9.840488	-0.032519	-0.004207	0.007905				-0.945120	-0.176161	35.633183
12684	15137145	0.091561	-0.052684	9.837682	0.003795	0.001684	-0.013238				-0.944571	-0.175952	35.631295
12688	15137170	0.083544	-0.063867	9.844522	-0.017637	0.005916	0.009803	0.267986	-0.267584	-1.012042	-0.947101	-0.175081	35.632679
12691	15137195	0.096007	-0.075717	9.833670	-0.009638	0.007841	0.013046				-0.948487	-0.173927	35.634526
12695	15137220	0.083679	-0.062693	9.826698	-0.033748	0.008719	0.001624				-0.950966	-0.176874	35.635513
12698	15137245	0.083949	-0.057027	9.810217	-0.007883	-0.017820	0.001246				-0.952095	-0.179424	35.635735
12702	15137270	0.071177	-0.061123	9.836205	-0.000191	0.013442	0.000417	0.266998	-0.266585	-1.012518	-0.952123	-0.177498	35.635762
12705	15137295	0.092756	-0.054287	9.825354	-0.011042	0.025713	0.007756				-0.953708	-0.173796	35.636810
12709	15137320	0.086289	-0.046152	9.811581	-0.004540	0.005588	0.008593				-0.950624	-0.177582	35.641023
12712	15137345	0.082093	-0.057109	9.823916	-0.004292	0.024611	-0.011396				-0.951233	-0.174085	35.639333
12716	15137370	0.086593	-0.065074	9.825347	-0.007316	0.001657	0.012045	0.267043	-0.265097	-1.010009	-0.952286	-0.173819	35.641043
12719	15137395	0.094530	-0.071649	9.835016	-0.012729	0.008313	0.004335				-0.954111	-0.172618	35.641642
12723	15137420	0.098646	-0.076810	9.836427	0.005376	0.009505	-0.006363				-0.949559	-0.170830	35.643212
12726	15137445	0.084719	-0.054235	9.840371	0.003465	0.007464	-0.014396				-0.949057	-0.169795	35.641125
12730	15137470	0.087810	-0.058132	9.818472	0.008124	0.003096	0.009671	0.266593	-0.266565	-1.010046	-0.947897	-0.169329	35.642504
12733	15137495	0.104063	-0.066277	9.819984	-0.010429	0.006020	0.009231				-0.949395	-0.168445	35.643807
12737	15137520	0.088095	-0.067894	9.819883	-0.019240	-0.010574	-0.012541				-0.948936	-0.171733	35.643904
12740	15137545	0.097172	-0.071722	9.829553	-0.007957	0.012641	0.002693				-0.950077	-0.169916	35.644256
12744	15137570	0.111639	-0.037445	9.832282	0.010569	0.001258	-0.003739	0.268015	-0.267580	-1.011052	-0.948562	-0.169745	35.643721
12747	15137595	0.099729	-0.044470	9.813030	0.010236	0.002740	-0.000933				-0.947095	-0.169355	35.643581
12751	15137620	0.099611	-0.043011	9.832218	0.012779	0.007813	-0.006062				-0.944690	-0.169816	35.646342
12754	15137645	0.105930	-0.024391	9.821251	-0.005934	0.013572	-0.005448				-0.945538	-0.167885	35.645527
12758	15137670	0.076674	-0.053117	9.833474	-0.008853	0.015576	-0.000075	0.269467	-0.268589	-1.011068	-0.946806	-0.165654	35.645483
12761	15137695	0.087099	-0.026058	9.822488	-0.006983	0.002214	0.000763				-0.947806	-0.165335	35.645586
12765	15137720	0.084767	-0.055583	9.817074	-0.001681	0.021890	0.011536				-0.942048	-0.164161	35.649136
12768	15137745	0.073893	-0.038289	9.830661	-0.005271	0.004303	0.004709				-0.942805	-0.163533	35.649802
12772	15137770	0.087558	-0.052701	9.845881	0.006945	-0.013654	-0.017364	0.268088	-0.267568	-1.008578	-0.941803	-0.165530	35.647346
12775	15137795	0.087339	-0.043335	9.847234	-0.005642	-0.006467	-0.023027				-0.942601	-0.166510	35.644059
12779	15137820	0.115522	-0.025677	9.826792	-0.016002	0.007489	-0.022210				-0.941550	-0.166250	35.646489
12782	15137845	0.114639	-0.041633	9.830950	-0.002080	-0.005814	-0.013582				-0.941842	-0.167114	35.644557
12786	15137870	0.114326	-0.033619	9.825429	-0.001594	0.008571	-0.003432	0.267134	-0.266070	-1.007558	-0.942069	-0.165895	35.644036
12789	15137895	0.089813	-0.022884	9.837575	0.016551	-0.002001	0.013606				-0.939704	-0.166149	35.645997
12793	15137920	0.087392	-0.036680	9.829383	0.001411	-0.005397	0.018460				-0.939136	-0.169664	35.645548
12796	15137945	0.088911	-0.051678	9.829436	-0.022931	0.005428	-0.008953				-0.942416	-0.168907	35.644249
12800	15137970	0.104443	-0.020163	9.841774	-0.001553	0.014403	-0.013724	0.267611	-0.266078	-1.007556	-0.942633	-0.166877	35.642246
12803	15137995	0.096851	-0.029976	9.829417	-0.010088	-0.006810	0.012623				-0.944083	-0.167823	35.644073
12807	15138020	0.107359	-0.033864	9.844593	-0.030755	0.002731	-0.013666				-0.941129	-0.168832	35.644406
12810	15138045	0.076677	-0.054490	9.834844	-0.011760	0.009820	0.011499				-0.942819	-0.167399	35.646036
12814	15138070	0.109292	-0.045630	9.837779	0.001684	-0.014146	0.009175	0.268609	-0.267570	-1.007091	-0.942581	-0.169403	35.647385
12817	15138095	0.087555	-0.035180	9.823887	0.019109	-0.014387	0.000685				-0.939845	-0.171462	35.647516
12821	15138120	0.113053	-0.041775	9.818588	-0.003685	0.015965	0.010778				-0.941026	-0.170097	35.653072
12824	15138145	0.088779	-0.043465	9.834891	-0.006525	0.002250	0.008413				-0.941964	-0.169755	35.654270
12828	15138170	0.092775	-0.040605	9.836276	-0.007284	0.008285	-0.018169	0.269555	-0.267094	-1.007075	-0.942999	-0.168611	35.651652
12831	15138195	0.102245	-0.036343	9.814397	0.010380	0.005601	0.003155				-0.941514	-0.167801	35.652085
12835	15138220	0.099726	-0.051317	9.828138	-0.002591	0.000663	-0.002737				-0.937094	-0.172640	35.653354
12838	15138245	0.102123	-0.040499	9.843206	-0.012633	0.006743	-0.012363				-0.938898	-0.171703	35.651570
12842	15138270	0.121180	-0.037434	9.824119	0.006600	0.011526	-0.008246	0.270988	-0.267118	-1.007068	-0.937949	-0.170072	35.650361
12845	15138295	0.110467	-0.063086	9.840595	-0.003350	0.022197	0.006256				-0.938431	-0.166878	35.651202
12849	15138320	0.106272	-0.039125	9.821282	0.001343	0.014870	0.013840				-0.932738	-0.169159	35.654677
12852	15138345	0.107778	-0.056507	9.828208	-0.003381	0.018957	-0.014734				-0.933216	-0.166479	35.652519
12856	15138370	0.114519	-0.043086	9.828209	-0.009105	0.002261	-0.020285	0.270038	-0.266607	-1.006566	-0.934512	-0.166202	35.649615
12859	15138395	0.103856	-0.044502	9.824029	0.002398	-0.010490	0.003652				-0.934170	-0.167696	35.650159
12863	15138420	0.092958	-0.054181	9.837696	-0.019249	-0.000127	-0.011101				-0.934208	-0.165115	35.651231
12866	15138445	0.101118	-0.039460	9.834968	-0.028598	-0.020099	0.006324				-0.938307	-0.167979	35.652177
12870	15138470	0.098302	-0.037974	9.819852	-0.012925	-0.002968	-0.004886	0.269034	-0.267092	-1.008562	-0.940157	-0.168415	35.651489
12873	15138495	0.099471	-0.047076	9.839097	0.005688	0.009640	-0.011335				-0.939337	-0.167061	35.649841
12877	15138520	0.100675	-0.035070	9.839067	0.005680	0.011022	0.003766				-0.935466	-0.170386	35.655229
12880	15138545	0.093730	-0.019247	9.811536	-0.008655	0.016470	-0.012153				-0.936700	-0.168056	35.653449
12884	15138570	0.085916	-0.039597	9.840349	-0.023250	0.000255	-0.018936	0.269995	-0.266614	-1.008050	-0.940022	-0.168064	35.650733
12887	15138595	0.101942	-0.032545	9.828100	-0.013025	0.018865	0.012484				-0.941893	-0.165332	35.652484
12891	15138620	0.113223	-0.034964	9.822693	-0.006288	-0.012778	0.002228				-0.936565	-0.170595	35.651384
12894	15138645	0.083261	-0.039549	9.822495	-0.001253	0.009979	0.000645				-0.936745	-0.169164	35.651449
12898	15138670	0.087242	-0.047561	9.836266	-0.015984	0.021094	0.011283	0.269546	-0.266601	-1.007063	-0.939039	-0.166116	35.653019
12901	15138695	0.102452	-0.052600	9.832279	-0.002852	-0.005592	-0.021364				-0.939439	-0.166967	35.649967
12905	15138720	0.079284	-0.059815	9.851342	-0.013791	0.011164	0.007816				-0.939348	-0.163832	35.658282
12908	15138745	0.096886	-0.048735	9.850043	-0.016300	0.006600	-0.000268				-0.941683	-0.162888	35.658229
12912	15138770	0.084842	-0.056942	9.845885	-0.015114	-0.005572	-0.005741	0.267630	-0.267063	-1.007579	-0.943846	-0.163699	35.657426
12915	15138795	0.090679	-0.068844	9.832239	0.005616	-0.004980	0.006831				-0.943045	-0.164396	35.658416
12919	15138820	0.091342	-0.044828	9.840398	-0.014004	0.001787	0.000602				-0.942715	-0.166360	35.657613
12922	15138845	0.077861	-0.047515	9.832088	-0.001103	0.013572	0.004987				-0.942874	-0.164404	35.658298
12926	15138870	0.097040	-0.047512	9.832224	-0.013858	-0.003804	0.002503	0.268601	-0.265595	-1.006055	-0.944860	-0.164943	35.658655
12929	15138895	0.084627	-0.056990	9.828052	-0.009979	0.023240	0.005607				-0.946292	-0.161602	35.659405
12933	15138920	0.092959	-0.062341	9.834978	-0.010614	0.018281	-0.015770				-0.942032	-0.165118	35.658842
12936	15138945	0.073580	-0.042340	9.849877	-0.013666	0.017254	-0.001466				-0.943989	-0.162650	35.658584
12940	15138970	0.075196	-0.057327	9.840334	-0.021829	0.013646	-0.007513	0.268105	-0.264602	-1.006034	-0.947113	-0.160714	35.657470
12943	15138995	0.088861	-0.055340	9.834930	0.001009	0.010131	-0.008833				-0.946965	-0.159284	35.656184
12947	15139020	0.082247	-0.060891	9.847248	0.000662	-0.003026	-0.010924				-0.944907	-0.159892	35.658819
12950	15139045	0.092988	-0.056801	9.821246	0.006911	0.010726	0.002551				-0.943918	-0.158350	35.659150
12954	15139070	0.092842	-0.049919	9.837678	0.004314	0.013296	-0.003958	0.267620	-0.266571	-1.007567	-0.943298	-0.156455	35.658556
12957	15139095	0.090411	-0.055439	9.825349	-0.002605	0.001690	-0.015622				-0.943665	-0.156250	35.656320
12961	15139120	0.093091	-0.053030	9.837696	-0.026342	-0.000802	0.007592				-0.943391	-0.157188	35.661602
12964	15139145	0.087577	-0.056843	9.826702	0.002737	0.000258	-0.001822				-0.942999	-0.157156	35.661340
12968	15139170	0.073911	-0.053221	9.832084	-0.017956	0.011109	-0.002497	0.268605	-0.266582	-1.006573	-0.945570	-0.155571	35.660959
12971	15139195	0.084934	-0.070388	9.828094	-0.002131	0.013317	-0.017208				-0.945868	-0.153704	35.658467
12975	15139220	0.078451	-0.077057	9.828072	0.012493	0.010806	-0.012380				-0.940605	-0.155906	35.659032
12978	15139245	0.095765	-0.050065	9.833595	-0.008722	-0.006053	0.012279				-0.941859	-0.156744	35.660799
12982	15139270	0.075459	-0.061178	9.843083	-0.011358	-0.011879	0.004658	0.271495	-0.267122	-1.006076	-0.943488	-0.158435	35.661502
12985	15139295	0.071166	-0.054402	9.851265	-0.000723	0.002004	0.003150				-0.943592	-0.158140	35.661945
12989	15139320	0.084876	-0.058104	9.841771	0.002450	0.003856	0.011714				-0.939903	-0.158044	35.662223
12992	15139345	0.083634	-0.069077	9.828086	-0.006917	0.014740	-0.009875				-0.940890	-0.155957	35.660771
12996	15139370	0.083367	-0.054248	9.840378	0.000669	0.010982	0.001973	0.271969	-0.266143	-1.005555	-0.940795	-0.154379	35.661034
12999	15139395	0.094650	-0.063624	9.826767	0.002195	-0.002970	-0.013754				-0.940475	-0.154837	35.659066
13003	15139420	0.079473	-0.058684	9.837616	-0.034593	-0.001033	-0.003374				-0.942317	-0.156298	35.662716
13006	15139445	0.092792	-0.058159	9.844573	-0.010298	0.011267	0.023969				-0.943802	-0.154627	35.666128
13010	15139470	0.101394	-0.062038	9.825444	-0.002754	-0.001232	-0.000575	0.271022	-0.266619	-1.005571	-0.944196	-0.154805	35.666044
13013	15139495	0.096869	-0.040609	9.821225	0.006479	0.001492	-0.005607				-0.943266	-0.154605	35.665242
13017	15139520	0.094356	-0.053953	9.826723	0.009827	0.006074	-0.017914				-0.938930	-0.156497	35.664389
13020	15139545	0.094903	-0.089440	9.821372	-0.019774	0.010607	-0.021595				-0.941754	-0.155029	35.661275
13024	15139570	0.089062	-0.063760	9.823988	-0.019109	0.009131	0.010607	0.271013	-0.266127	-1.005560	-0.944495	-0.153696	35.662772
13027	15139595	0.113734	-0.067188	9.813200	-0.000189	-0.003342	0.011964				-0.944527	-0.154147	35.664499
13031	15139620	0.090283	-0.061009	9.839076	-0.010008	0.004062	0.007825				-0.941470	-0.154954	35.665253
13034	15139645	0.088917	-0.069004	9.834976	-0.008953	0.013410	-0.001475				-0.942751	-0.153037	35.665009
13038	15139670	0.091813	-0.065023	9.825384	-0.012502	0.005490	-0.012563	0.271008	-0.266622	-1.006066	-0.944537	-0.152280	35.663199
13041	15139695	0.069973	-0.051591	9.844393	0.012055	-0.009869	0.012982				-0.942815	-0.153663	35.665073
13045	15139720	0.083482	-0.062337	9.851366	-0.007613	0.007547	-0.002331				-0.942128	-0.153716	35.667161
13048	15139745	0.084748	-0.058090	9.851374	0.010082	-0.002840	0.015254				-0.940690	-0.154087	35.669345
13052	15139770	0.094313	-0.051391	9.840439	-0.001791	-0.003475	0.014918	0.269140	-0.266582	-1.004591	-0.940952	-0.154550	35.671489
13055	15139795	0.094350	-0.052799	9.837702	-0.010596	-0.005448	0.010073				-0.942474	-0.155306	35.672951
13059	15139820	0.083735	-0.054275	9.825293	-0.015686	-0.006533	-0.024050				-0.937941	-0.158988	35.672995
13062	15139845	0.084604	-0.044877	9.851328	-0.009844	-0.008684	-0.014822				-0.939345	-0.160267	35.670895
13066	15139870	0.078259	-0.070544	9.830797	-0.003330	0.004765	-0.013056	0.269585	-0.265607	-1.005060	-0.939817	-0.159615	35.669011
13069	15139895	0.098430	-0.055243	9.833629	-0.000766	0.003193	0.003189				-0.939928	-0.159150	35.669460
13073	15139920	0.093276	-0.061097	9.830865	-0.011700	-0.005364	0.001724				-0.939485	-0.163192	35.672493
13076	15139945	0.077950	-0.038335	9.827946	-0.015961	0.000067	-0.006993				-0.941769	-0.163199	35.671493
13080	15139970	0.076755	-0.047777	9.816992	-0.001228	0.001936	-0.012510	0.269553	-0.264625	-1.005532	-0.941939	-0.162951	35.669697
13083	15139995	0.072741	-0.049228	9.825203	-0.013676	-0.006007	-0.006318				-0.943896	-0.163827	35.668811
13087	15140020	0.092829	-0.046216	9.822596	-0.011191	0.006588	-0.009319				-0.940120	-0.163621	35.670646
13090	15140045	0.083765	-0.063940	9.814361	-0.022078	0.000069	0.011219				-0.943287	-0.163585	35.672250
13094	15140070	0.098521	-0.060747	9.841871	-0.010070	0.004309	0.003502	0.270479	-0.264646	-1.006517	-0.944731	-0.162959	35.672746
13097	15140095	0.077942	-0.054198	9.819762	0.014466	0.015271	-0.017403				-0.942652	-0.160813	35.670217
13101	15140120	0.077851	-0.053128	9.837590	-0.000723	0.019735	0.014603				-0.943267	-0.163030	35.675841
13104	15140145	0.064139	-0.047855	9.844342	-0.005670	0.021955	-0.022894				-0.944070	-0.159939	35.672513
13108	15140170	0.085775	-0.032705	9.843059	-0.005281	0.008313	0.006811	0.270971	-0.264652	-1.006020	-0.944829	-0.158733	35.673470
13111	15140195	0.097756	-0.032578	9.848633	-0.022618	0.015280	0.007688				-0.948072	-0.156526	35.674530
13115	15140220	0.076405	-0.052987	9.848557	-0.005555	0.019501	-0.007720				-0.940014	-0.155867	35.671938
13118	15140245	0.088618	-0.044652	9.836271	0.001039	0.014174	-0.008605				-0.939862	-0.153858	35.670664
13122	15140270	0.112864	-0.025491	9.815799	0.004610	0.014259	-0.006537	0.270049	-0.265618	-1.005553	-0.939199	-0.151831	35.669703
13125	15140295	0.095788	-0.060832	9.832247	0.001170	0.006199	-0.006963				-0.939029	-0.150959	35.668687
13129	15140320	0.074878	-0.038355	9.825191	-0.011855	0.020523	0.003308				-0.940616	-0.148741	35.674808
13132	15140345	0.087537	-0.033989	9.818398	-0.002657	-0.004987	0.013354				-0.941001	-0.149424	35.676733
13136	15140370	0.072498	-0.042452	9.826553	-0.003619	-0.000569	0.013806	0.270025	-0.265128	-1.006036	-0.941525	-0.149473	35.678703
13139	15140395	0.099338	-0.028570	9.825327	-0.019263	0.009435	-0.002575				-0.944283	-0.148128	35.678310
13143	15140420	0.105060	-0.037834	9.822639	-0.012106	-0.009455	-0.009999				-0.939556	-0.152035	35.678498
13146	15140445	0.094125	-0.030343	9.823915	-0.037892	-0.001082	-0.008881				-0.944980	-0.152210	35.677224
13150	15140470	0.093141	-0.046066	9.818475	-0.011022	0.001094	0.005527	0.271504	-0.267615	-1.006087	-0.946561	-0.152041	35.678013
13153	15140495	0.079376	-0.051811	9.837602	-0.013894	0.000696	0.002922				-0.948552	-0.151934	35.678432
13157	15140520	0.084625	-0.032629	9.819752	-0.000474	-0.002398	0.010173				-0.945864	-0.153076	35.682399
13160	15140545	0.087086	-0.016744	9.825200	-0.013986	0.001314	-0.014183				-0.947862	-0.152922	35.680370
13164	15140570	0.118358	-0.022822	9.825431	-0.003663	-0.004648	-0.003484	0.270075	-0.268577	-1.006612	-0.948385	-0.153596	35.679874
13167	15140595	0.083422	-0.038273	9.840330	-0.013460	-0.008745	0.015099				-0.950319	-0.154812	35.682063
13171	15140620	0.098055	-0.036651	9.832196	-0.014803	-0.002141	0.000252				-0.948970	-0.155859	35.684270
13174	15140645	0.113000	-0.041467	9.844650	0.008427	0.000671	-0.002487				-0.947762	-0.155769	35.683915
13178	15140670	0.110465	-0.047033	9.841903	0.003058	0.005151	-0.010858	0.269985	-0.266122	-1.008039	-0.947320	-0.155057	35.682350
13181	15140695	0.123695	-0.042746	9.846110	-0.008318	0.009285	0.005423				-0.948513	-0.153714	35.683094
13185	15140720	0.106648	-0.044608	9.836390	-0.016367	-0.008912	0.009620				-0.948067	-0.159579	35.687020
13188	15140745	0.094199	-0.044875	9.836313	-0.022785	-0.002618	-0.006950				-0.951328	-0.159971	35.686031
13192	15140770	0.114255	-0.040022	9.846028	0.006934	0.009713	0.003999	0.269480	-0.264636	-1.008006	-0.950336	-0.158570	35.686577
13195	15140795	0.110398	-0.043226	9.830928	-0.015768	0.004272	-0.019547				-0.952588	-0.158005	35.683774
13199	15140820	0.110439	-0.040323	9.837770	-0.000978	0.001314	-0.000629				-0.948136	-0.159097	35.688894
13202	15140845	0.104586	-0.039023	9.854195	-0.003003	0.013673	-0.010458				-0.948562	-0.157164	35.687359
13206	15140870	0.090025	-0.050004	9.843143	0.005084	0.007688	-0.019804	0.269531	-0.266604	-1.007558	-0.947826	-0.156110	35.684494
13209	15140895	0.119776	-0.045727	9.825514	-0.013606	0.017990	-0.007257				-0.949772	-0.153550	35.683416
13213	15140920	0.091839	-0.050145	9.822592	-0.007784	-0.009958	-0.002301				-0.947661	-0.159041	35.684922
13216	15140945	0.109081	-0.044332	9.824063	0.004068	0.004736	-0.013749				-0.947073	-0.158396	35.682937
13220	15140970	0.106795	-0.052746	9.814474	-0.011761	-0.003451	-0.002430	0.270954	-0.267618	-1.008564	-0.948757	-0.158896	35.682597
13223	15140995	0.106643	-0.058057	9.817237	-0.015366	0.006363	0.003324				-0.950959	-0.157976	35.683052
13227	15141020	0.094277	-0.054087	9.826735	-0.000399	0.010960	-0.007711				-0.947225	-0.156847	35.682798
13230	15141045	0.108924	-0.033775	9.822658	-0.011355	0.014015	-0.004977				-0.948849	-0.154851	35.682047
13234	15141070	0.090242	-0.062363	9.828099	-0.007223	0.019875	0.001957	0.271493	-0.268604	-1.007100	-0.949884	-0.152000	35.682280
13237	15141095	0.106280	-0.039233	9.818545	-0.013249	0.017092	-0.009206				-0.951778	-0.149574	35.680913
13241	15141120	0.102525	-0.041671	9.829493	0.016651	-0.003833	-0.003928				-0.946169	-0.153704	35.684967
13244	15141145	0.103786	-0.043067	9.833621	0.006105	-0.004926	-0.007091				-0.945292	-0.154426	35.683968
13248	15141170	0.114407	-0.033666	9.828181	-0.008489	0.005990	0.003424	0.270563	-0.267596	-1.005597	-0.946509	-0.153560	35.684444
13251	15141195	0.090085	-0.044699	9.834899	-0.000219	0.006689	-0.015484				-0.946535	-0.152639	35.682216
13255	15141220	0.093290	-0.052824	9.819868	-0.001685	-0.014476	0.010495				-0.945115	-0.155245	35.686863
13258	15141245	0.087701	-0.073176	9.847322	-0.020568	0.005156	-0.001082				-0.948061	-0.154509	35.686702
13262	15141270	0.064930	-0.065381	9.832064	-0.005868	-0.013192	-0.000696	0.270038	-0.266607	-1.006566	-0.948901	-0.156400	35.686635
13265	15141295	0.084645	-0.059793	9.843153	-0.019644	0.013167	-0.014400				-0.951709	-0.154549	35.684536
13269	15141320	0.101083	-0.052688	9.845981	-0.018525	-0.003864	0.001293				-0.948049	-0.158090	35.686632
13272	15141345	0.095685	-0.058111	9.844594	-0.010213	-0.000328	0.003782				-0.949513	-0.158129	35.687171
13276	15141370	0.083467	-0.046317	9.832123	-0.011794	-0.008132	0.000659	0.270052	-0.266605	-1.006071	-0.951203	-0.159292	35.687290
13279	15141395	0.102019	-0.033904	9.815751	-0.005890	0.019933	-0.000735				-0.952047	-0.156439	35.687138
13283	15141420	0.092929	-0.046212	9.822590	-0.005898	0.005895	-0.006320				-0.951321	-0.158673	35.686627
13286	15141445	0.086314	-0.058292	9.825331	-0.001714	0.000517	-0.005929				-0.951564	-0.158613	35.685773
13290	15141470	0.088003	-0.068967	9.826736	0.002959	-0.009075	-0.002496	0.271035	-0.268099	-1.006101	-0.951139	-0.159919	35.685434
13293	15141495	0.084108	-0.062652	9.808866	-0.012548	-0.008208	-0.009263				-0.952933	-0.161116	35.684133
13297	15141520	0.098777	-0.067498	9.828182	-0.013255	-0.007972	-0.008515				-0.950348	-0.160292	35.686807
13300	15141545	0.080420	-0.042177	9.838941	0.000092	0.009811	0.014295				-0.950340	-0.158853	35.688835
13304	15141570	0.083243	-0.053070	9.847224	-0.016531	0.013527	0.011347	0.271031	-0.267112	-1.005583	-0.952713	-0.156889	35.690425
13307	15141595	0.079909	-0.062327	9.822547	0.004807	-0.009495	-0.013517				-0.952019	-0.158281	35.688507
13311	15141620	0.097285	-0.059425	9.832266	-0.006355	-0.008616	-0.006942				-0.951882	-0.161397	35.689995
13314	15141645	0.097404	-0.072907	9.839162	-0.001246	-0.011475	-0.010517				-0.952057	-0.163065	35.688517
13318	15141670	0.087742	-0.060923	9.839062	-0.008346	-0.003763	-0.005203	0.271022	-0.266619	-1.005571	-0.953250	-0.163616	35.687782
13321	15141695	0.092536	-0.054026	9.844553	0.003196	0.025418	0.005037				-0.952794	-0.159964	35.688439
13325	15141720	0.079442	-0.055451	9.848589	-0.000867	0.002278	0.017208				-0.949157	-0.166701	35.690316
13328	15141745	0.083674	-0.057046	9.833526	-0.002964	-0.003284	0.014085				-0.949587	-0.167138	35.692346
13332	15141770	0.087637	-0.071729	9.818523	-0.000407	0.023678	0.012569	0.269130	-0.267571	-1.005604	-0.949650	-0.163717	35.694083
13335	15141795	0.091980	-0.079812	9.826799	-0.003982	0.014430	-0.003272				-0.950219	-0.161658	35.693584
13339	15141820	0.076937	-0.070624	9.830790	-0.013708	0.005831	0.005186				-0.947634	-0.161286	35.699136
13342	15141845	0.082618	-0.065240	9.837651	-0.012913	-0.019906	0.003326				-0.949485	-0.164129	35.699654
13346	15141870	0.106626	-0.068706	9.844696	-0.011635	0.006324	-0.000121	0.270018	-0.267104	-1.007567	-0.951152	-0.163223	35.699634
13349	15141895	0.099869	-0.048663	9.821274	-0.015163	-0.012425	-0.003931				-0.953322	-0.165012	35.699102
13353	15141920	0.062074	-0.062893	9.822434	-0.009653	0.008468	-0.004104				-0.949573	-0.162020	35.700355
13356	15141945	0.080041	-0.065230	9.817078	-0.008002	-0.013995	-0.002895				-0.950718	-0.164032	35.699970
13360	15141970	0.082315	-0.054458	9.815680	-0.007714	-0.003393	-0.007498	0.270474	-0.265141	-1.007024	-0.951821	-0.164535	35.698910
13363	15141995	0.080830	-0.048968	9.814282	0.006144	0.007078	-0.007868				-0.950937	-0.163540	35.697768
13367	15142020	0.098693	-0.053041	9.817166	-0.022364	-0.003366	-0.005062				-0.953663	-0.168873	35.698780
13370	15142045	0.095920	-0.062474	9.818545	-0.027494	0.008047	0.002977				-0.957602	-0.167714	35.699183
13374	15142070	0.098801	-0.071594	9.819963	-0.002633	0.006612	-0.006945	0.270971	-0.264652	-1.006020	-0.957976	-0.166783	35.698165
13377	15142095	0.096909	-0.048697	9.830856	-0.012386	0.007878	-0.002809				-0.959749	-0.165662	35.697748
13381	15142120	0.106680	-0.063468	9.832339	-0.017980	0.004372	0.000662				-0.956142	-0.167218	35.698905
13384	15142145	0.105254	-0.070218	9.850172	-0.020228	0.004771	0.023013				-0.959049	-0.166480	35.702185
13388	15142170	0.105079	-0.056363	9.848763	0.002317	0.006713	-0.004694	0.270077	-0.265613	-1.004563	-0.958715	-0.165530	35.701498
13391	15142195	0.101399	-0.067508	9.828199	-0.008424	0.012030	-0.017193				-0.959914	-0.163848	35.699007
13395	15142220	0.099689	-0.062181	9.840508	-0.012752	0.016056	-0.010341				-0.958787	-0.164200	35.702872
13398	15142245	0.092924	-0.059316	9.843206	-0.000347	0.003102	0.005259				-0.958839	-0.163743	35.703614
13402	15142270	0.097524	-0.074285	9.835051	-0.003548	-0.006315	0.007465	0.269623	-0.266095	-1.004082	-0.959350	-0.164629	35.704697
13405	15142295	0.086126	-0.063537	9.840430	0.001569	0.004908	0.005785				-0.959128	-0.163912	35.705514
13409	15142320	0.084279	-0.083621	9.832252	0.016718	-0.012557	0.005092				-0.954635	-0.166798	35.705948
13412	15142345	0.112106	-0.056434	9.829605	0.005293	-0.004424	-0.001110				-0.953876	-0.167434	35.705794
13416	15142370	0.099590	-0.052831	9.826769	-0.010680	0.013779	-0.011560	0.270068	-0.265121	-1.004552	-0.955401	-0.165489	35.704101
13419	15142395	0.084787	-0.063482	9.851386	0.002992	0.007047	-0.003693				-0.954971	-0.164488	35.703563
13423	15142420	0.079200	-0.053089	9.838974	-0.017479	0.013736	-0.010251				-0.954153	-0.164887	35.704993
13426	15142445	0.102530	-0.055121	9.829542	0.008793	0.006494	-0.021298				-0.952885	-0.164008	35.701932
13430	15142470	0.083557	-0.044668	9.823895	0.013258	-0.007834	-0.010206	0.270049	-0.265618	-1.005553	-0.950982	-0.165154	35.700497
13433	15142495	0.103555	-0.041656	9.815794	0.019294	0.014380	0.005056				-0.948221	-0.163083	35.701182
13437	15142520	0.096663	-0.047050	9.834965	0.009829	0.026298	0.005464				-0.945623	-0.162437	35.703232
13440	15142545	0.102074	-0.041633	9.839082	0.011238	0.016910	0.005494				-0.944016	-0.160002	35.703981
13444	15142570	0.083048	-0.039355	9.830720	0.007631	0.025903	0.002994	0.268639	-0.266083	-1.005077	-0.942924	-0.156285	35.704352
13447	15142595	0.069770	-0.024714	9.825103	0.010426	-0.008388	0.008589				-0.941434	-0.157466	35.705600
13451	15142620	0.081851	-0.035320	9.847169	-0.001954	-0.002939	-0.010815				-0.936917	-0.156727	35.706810
13454	15142645	0.092698	-0.041908	9.848624	0.001197	0.000460	-0.003457				-0.936744	-0.156669	35.706319
13458	15142670	0.106368	-0.057691	9.839177	0.005424	0.019330	-0.013675	0.270096	-0.266598	-1.004586	-0.935962	-0.153933	35.704317
13461	15142695	0.088803	-0.051399	9.826694	0.007664	0.011019	-0.003597				-0.934863	-0.152363	35.703771
13465	15142720	0.063018	-0.050651	9.836119	-0.004761	-0.001395	0.004958				-0.931631	-0.157362	35.708232
13468	15142745	0.076511	-0.055520	9.840333	0.005478	0.019966	0.008994				-0.930850	-0.154482	35.709481
13472	15142770	0.090182	-0.042061	9.812964	-0.001894	0.006098	-0.002462	0.270049	-0.265618	-1.005553	-0.931121	-0.153614	35.709115
13475	15142795	0.067362	-0.047810	9.825169	-0.000940	-0.009637	0.011143				-0.931259	-0.154968	35.710714
13479	15142820	0.076498	-0.044949	9.830698	-0.003439	0.014961	0.002079				-0.926990	-0.151955	35.710580
13482	15142845	0.099585	-0.032601	9.821222	-0.009695	-0.001560	-0.008224				-0.928376	-0.152197	35.709411
13486	15142870	0.085949	-0.040752	9.836239	-0.005338	0.000766	0.001401	0.270024	-0.266610	-1.007061	-0.929141	-0.152084	35.709613
13489	15142895	0.094006	-0.035487	9.823936	-0.022846	0.005005	-0.012276				-0.932409	-0.151396	35.707845
13493	15142920	0.080475	-0.022209	9.822433	-0.016634	-0.003566	0.016169				-0.928146	-0.155975	35.716385
13496	15142945	0.083172	-0.038368	9.812905	-0.012727	0.012191	-0.008598				-0.929966	-0.154249	35.715127
13500	15142970	0.080796	-0.046568	9.814273	-0.022060	0.007449	-0.000951	0.270129	-0.267581	-1.004115	-0.933125	-0.153184	35.714977
13503	15142995	0.103548	-0.027259	9.815740	-0.016204	0.002508	0.013000				-0.935451	-0.152795	35.716834
13507	15143020	0.105141	-0.040358	9.819908	0.004688	0.001980	0.004433				-0.932200	-0.154265	35.716787
13510	15143045	0.107799	-0.041789	9.829537	-0.002234	-0.007263	0.019799				-0.932527	-0.155259	35.719631
13514	15143070	0.084431	-0.039297	9.841707	0.001156	0.014681	0.018226	0.270143	-0.267578	-1.003620	-0.932369	-0.153114	35.722207
13517	15143095	0.067175	-0.040047	9.838839	-0.028589	-0.005329	-0.008117				-0.936461	-0.153896	35.721063
13521	15143120	0.076420	-0.039755	9.822453	-0.015804	0.012396	-0.012137				-0.933428	-0.153039	35.724608
13524	15143145	0.102058	-0.033874	9.845930	-0.012897	0.003517	-0.004265				-0.935274	-0.152545	35.723986
13528	15143170	0.109914	-0.021590	9.841826	-0.013563	0.011724	0.005238	0.270105	-0.267091	-1.004598	-0.937219	-0.150854	35.724714
13531	15143195	0.102248	-0.036495	9.836338	-0.008732	-0.002824	0.018279				-0.938476	-0.151215	35.727334
13535	15143220	0.087270	-0.046199	9.844488	-0.008149	0.007130	0.008376				-0.938954	-0.152655	35.726901
13538	15143245	0.091738	-0.054163	9.839067	-0.007585	-0.004023	0.020358				-0.940048	-0.153183	35.729829
13542	15143270	0.086025	-0.044756	9.832144	-0.006339	0.000976	0.019655	0.270574	-0.266606	-1.004584	-0.940964	-0.152997	35.732642
13545	15143295	0.087103	-0.046244	9.841749	-0.008459	0.020795	-0.013204				-0.942170	-0.150050	35.730704
13549	15143320	0.093936	-0.035340	9.839024	-0.017183	0.012155	0.003979				-0.941157	-0.153667	35.737581
13552	15143345	0.119812	-0.041733	9.825498	-0.016522	0.004801	0.009505				-0.943527	-0.152957	35.738931
13556	15143370	0.091648	-0.064797	9.845956	-0.003183	0.008243	-0.000846	0.270081	-0.266600	-1.005081	-0.943983	-0.151779	35.738788
13559	15143395	0.099340	-0.047203	9.843216	-0.002173	0.015479	0.034483				-0.944307	-0.149480	35.743686
13563	15143420	0.100449	-0.014906	9.830764	-0.004359	0.012720	-0.005221				-0.942285	-0.149085	35.738572
13566	15143445	0.086307	-0.043547	9.832134	-0.013016	-0.010678	0.006580				-0.944153	-0.150599	35.739544
13570	15143470	0.099645	-0.035362	9.819863	-0.019623	-0.001374	-0.002401	0.270539	-0.267106	-1.006080	-0.946962	-0.150801	35.739197
13573	15143495	0.098204	-0.026049	9.815701	-0.015925	-0.009730	0.016990				-0.949250	-0.152154	35.741657
13577	15143520	0.117381	-0.046780	9.820011	0.011323	0.005917	0.019954				-0.942145	-0.149671	35.749341
13580	15143545	0.108815	-0.033866	9.819921	-0.017405	0.016221	0.001684				-0.944638	-0.147344	35.749544
13584	15143570	0.106060	-0.047064	9.848736	-0.001046	0.017248	-0.007859	0.271042	-0.266122	-1.004570	-0.944785	-0.144892	35.748380
13587	15143595	0.090034	-0.051584	9.832191	-0.013630	0.009876	0.005242				-0.946739	-0.143466	35.749113
13591	15143620	0.091459	-0.061989	9.852802	0.010903	0.015637	0.001408				-0.941982	-0.146064	35.752540
13594	15143645	0.111635	-0.048697	9.832332	-0.025320	0.020468	0.012989				-0.945613	-0.143102	35.754355
13598	15143670	0.104640	-0.028093	9.823989	0.006805	0.018759	0.006111	0.271066	-0.266612	-1.004087	-0.944640	-0.140400	35.755181
13601	15143695	0.110614	-0.057933	9.828232	-0.004889	0.015238	0.009078				-0.945344	-0.138197	35.756448
13605	15143720	0.095796	-0.067540	9.830906	-0.004946	0.015059	-0.002065				-0.943775	-0.138887	35.758116
13608	15143745	0.095710	-0.054321	9.821264	-0.021172	0.006399	0.009249				-0.946810	-0.137949	35.759420
13612	15143770	0.095864	-0.052779	9.824005	-0.011428	-0.006130	-0.005178	0.270637	-0.266103	-1.002098	-0.948446	-0.138839	35.758690
13615	15143795	0.103935	-0.060867	9.829567	-0.020315	0.004606	0.025561				-0.951364	-0.138119	35.762347
13619	15143820	0.105249	-0.058191	9.815855	-0.015303	0.010255	-0.005481				-0.947812	-0.137245	35.761401
13622	15143845	0.103990	-0.063437	9.826832	-0.014506	0.006628	0.003986				-0.949891	-0.136287	35.761965
13626	15143870	0.085287	-0.078646	9.828119	-0.007729	0.002064	-0.009052	0.271086	-0.266115	-1.003085	-0.950995	-0.136013	35.760663
13629	15143895	0.121160	-0.055175	9.829670	-0.011855	0.025153	-0.001587				-0.952693	-0.132414	35.760380
13633	15143920	0.087963	-0.078703	9.825399	-0.026554	0.007139	-0.007160				-0.954188	-0.136353	35.765398
13636	15143945	0.095579	-0.044722	9.828085	-0.015159	0.005031	-0.011037				-0.956355	-0.135659	35.763801
13640	15143970	0.066012	-0.062793	9.827940	-0.015923	0.008662	0.009078	0.269108	-0.265599	-1.005063	-0.958639	-0.134397	35.765082
13643	15143995	0.107067	-0.066017	9.826864	-0.003505	-0.014803	0.007896				-0.959144	-0.136498	35.766241
13647	15144020	0.077926	-0.053023	9.817023	-0.006519	0.012915	-0.001857				-0.957747	-0.131023	35.767504
13650	15144045	0.085465	-0.083868	9.829515	-0.009662	0.004484	-0.003882				-0.959129	-0.130391	35.766935
13654	15144070	0.071011	-0.042488	9.825161	-0.004427	0.019492	0.004286	0.269121	-0.267079	-1.005592	-0.959765	-0.127589	35.767506
13657	15144095	0.068889	-0.065424	9.840317	-0.017534	-0.006454	-0.001930				-0.962276	-0.128518	35.767245
13661	15144120	0.096686	-0.051428	9.847322	-0.015906	0.020334	-0.011486				-0.959020	-0.128876	35.770054
13664	15144145	0.080772	-0.060867	9.840378	0.006506	0.006554	-0.012973				-0.958084	-0.127968	35.768181
13668	15144170	0.067035	-0.058562	9.833426	-0.002044	0.034128	-0.012687	0.270592	-0.267591	-1.004607	-0.958373	-0.123111	35.766283
13671	15144195	0.054843	-0.065580	9.822391	-0.001931	0.036994	-0.018398				-0.958644	-0.117857	35.763555
13675	15144220	0.073721	-0.043731	9.852618	-0.014681	0.007287	-0.025475				-0.959454	-0.125123	35.764394
13678	15144245	0.069785	-0.058607	9.830709	-0.007521	0.016546	-0.011523				-0.960527	-0.122781	35.762709
13682	15144270	0.075055	-0.037000	9.823812	-0.012043	0.017698	-0.003655	0.270588	-0.266604	-1.004089	-0.962251	-0.120255	35.762135
13685	15144295	0.060293	-0.053421	9.855299	-0.015838	0.001554	0.000714				-0.964520	-0.120031	35.762234
13689	15144320	0.081061	-0.078493	9.834952	0.001435	0.003730	0.025046				-0.958799	-0.116469	35.764860
13692	15144345	0.070295	-0.080291	9.829396	-0.015932	0.016139	-0.004901				-0.961079	-0.114169	35.764121
13696	15144370	0.078228	-0.070556	9.836281	-0.013879	0.011981	0.001210	0.271042	-0.266122	-1.004570	-0.963067	-0.112450	35.764266
13699	15144395	0.057784	-0.069400	9.836134	0.009353	0.008604	-0.004271				-0.961726	-0.111229	35.763634
13703	15144420	0.075478	-0.064186	9.821148	-0.017761	0.022912	-0.017790				-0.964351	-0.111050	35.763600
13706	15144445	0.079473	-0.063826	9.847241	-0.011286	0.005589	-0.014147				-0.965964	-0.110284	35.761553
13710	15144470	0.097324	-0.078051	9.837798	0.009914	0.008228	-0.005943	0.272457	-0.265162	-1.004540	-0.964542	-0.109119	35.760691
13713	15144495	0.067656	-0.089405	9.837643	0.001755	0.015590	-0.005127				-0.964289	-0.106899	35.759920
13717	15144520	0.071362	-0.070699	9.840341	-0.005910	0.015371	-0.000988				-0.960523	-0.107757	35.761099
13720	15144545	0.085911	-0.046234	9.828028	-0.014299	0.018084	-0.005254				-0.962569	-0.105179	35.760293
13724	15144570	0.084667	-0.055453	9.826672	0.010140	0.020890	0.008970	0.272042	-0.264650	-1.002056	-0.961119	-0.102166	35.761527
13727	15144595	0.079623	-0.055620	9.817037	0.005963	0.004968	0.001325				-0.960265	-0.101451	35.761697
13731	15144620	0.107262	-0.082429	9.822794	-0.011115	-0.003932	-0.010349				-0.958935	-0.102595	35.761395
13734	15144645	0.082542	-0.070473	9.833571	-0.007743	-0.010377	-0.015181				-0.960040	-0.104118	35.759243
13738	15144670	0.084797	-0.042166	9.818417	-0.003242	0.001584	-0.003377	0.272037	-0.265145	-1.002563	-0.960503	-0.103899	35.758748
13741	15144695	0.075455	-0.069150	9.841743	-0.002763	0.012280	0.000009				-0.960899	-0.102141	35.758725
13745	15144720	0.069995	-0.063831	9.829339	0.002535	0.018699	-0.013998				-0.955763	-0.102605	35.759397
13748	15144745	0.083779	-0.071582	9.834947	-0.000069	0.005363	0.005253				-0.955774	-0.101824	35.760142
13752	15144770	0.074613	-0.072100	9.825285	-0.006656	-0.016266	-0.000149	0.270106	-0.265609	-1.003573	-0.956728	-0.104154	35.760151
13755	15144795	0.087863	-0.075682	9.836359	-0.003217	0.004837	0.001448				-0.957189	-0.103458	35.760342
13759	15144820	0.100074	-0.064943	9.828182	-0.011864	-0.007628	-0.007658				-0.955304	-0.105575	35.762363
13762	15144845	0.087617	-0.051547	9.817081	-0.003439	0.001997	0.000516				-0.955797	-0.105287	35.762432
13766	15144870	0.082413	-0.070320	9.825336	0.002499	0.000107	-0.000845	0.271080	-0.266610	-1.003592	-0.955439	-0.105274	35.762314
13769	15144895	0.087780	-0.064837	9.825351	0.006838	0.001223	-0.000069				-0.954460	-0.105099	35.762303
13773	15144920	0.087399	-0.066164	9.832223	0.011596	0.024153	0.009292				-0.950724	-0.103161	35.766196
13776	15144945	0.084907	-0.055654	9.825303	-0.002989	0.006311	-0.004733				-0.951151	-0.102268	35.765504
13780	15144970	0.083500	-0.056898	9.841753	0.005198	0.000131	-0.019316	0.273939	-0.264686	-1.002542	-0.950401	-0.102295	35.762733
13783	15144995	0.098071	-0.049924	9.843203	-0.002234	0.009602	-0.007229				-0.950720	-0.100937	35.761677
13787	15145020	0.065806	-0.047763	9.830639	0.008917	0.011992	0.004373				-0.944624	-0.102447	35.763364
13790	15145045	0.093953	-0.039051	9.834913	0.012323	0.010054	-0.010994				-0.942856	-0.101033	35.761770
13794	15145070	0.110776	-0.056437	9.829598	0.011195	-0.003164	-0.005105	0.273432	-0.264682	-1.003534	-0.941251	-0.101498	35.761046
13797	15145095	0.102344	-0.035232	9.819871	-0.003575	0.000614	0.004423				-0.941764	-0.101400	35.761679
13801	15145120	0.074029	-0.066531	9.845837	-0.001718	0.007984	0.000820				-0.938297	-0.101059	35.762319
13804	15145145	0.072855	-0.056048	9.834826	-0.018996	-0.013566	-0.001429				-0.941017	-0.103006	35.762143
13808	15145170	0.079353	-0.056636	9.849961	0.007783	-0.001778	0.002418	0.271578	-0.266121	-1.002588	-0.939903	-0.103255	35.762499
13811	15145195	0.079035	-0.036717	9.841659	0.002831	0.005607	-0.005096				-0.939497	-0.102464	35.761754
13815	15145220	0.092969	-0.059421	9.844574	0.005959	0.003539	-0.005639				-0.936049	-0.104736	35.766335
13818	15145245	0.059301	-0.065263	9.848473	0.016631	-0.001718	0.002229				-0.933667	-0.104977	35.766662
13822	15145270	0.064715	-0.053478	9.827897	-0.018761	-0.003441	-0.005223	0.271658	-0.268084	-1.001150	-0.936353	-0.105482	35.765911
13825	15145295	0.079117	-0.042062	9.829333	0.011414	0.006659	-0.005814				-0.934716	-0.104542	35.765065
13829	15145320	0.069497	-0.024944	9.830594	-0.000957	0.001305	0.000434				-0.932570	-0.106573	35.768730
13832	15145345	0.096675	-0.028345	9.828032	0.004597	0.002873	-0.012545				-0.931907	-0.106191	35.766913
13836	15145370	0.097008	-0.058340	9.837741	-0.019182	0.013058	-0.006142	0.272112	-0.267602	-1.001631	-0.934654	-0.104335	35.766009
13839	15145395	0.076144	-0.035582	9.852612	-0.013992	0.005619	-0.003536				-0.936657	-0.103539	35.765488
13843	15145420	0.077643	-0.035361	9.845765	-0.000493	0.007699	-0.012068				-0.929566	-0.104383	35.765315
13846	15145445	0.080509	-0.040865	9.841692	-0.003493	-0.000730	-0.013636				-0.930063	-0.104519	35.763361
13850	15145470	0.066806	-0.039827	9.844333	-0.009476	0.007984	-0.012356	0.272557	-0.266628	-1.002100	-0.931417	-0.103405	35.761573
13853	15145495	0.077839	-0.053089	9.838964	-0.014089	0.017932	-0.008340				-0.933432	-0.100856	35.760331
13857	15145520	0.070891	-0.045097	9.849866	-0.010476	0.014445	-0.010896				-0.931398	-0.102625	35.761041
13860	15145545	0.105207	-0.055264	9.832294	-0.000015	0.002992	-0.006075				-0.931399	-0.102211	35.760164
13864	15145570	0.088530	-0.032502	9.830734	0.011079	0.008209	0.017062	0.271659	-0.266602	-1.000126	-0.929816	-0.100996	35.762591
13867	15145595	0.065517	-0.031733	9.838820	-0.005607	0.001985	-0.010884				-0.930617	-0.100737	35.761035
13871	15145620	0.100041	-0.010857	9.849952	-0.005627	0.019802	0.004224				-0.929121	-0.097666	35.764429
13874	15145645	0.091385	-0.039535	9.845865	-0.016347	0.004466	-0.014514				-0.931459	-0.097060	35.762332
13878	15145670	0.077862	-0.039628	9.829323	-0.009178	-0.000942	-0.009044	0.271672	-0.268082	-1.000655	-0.932771	-0.097216	35.761040
13881	15145695	0.069834	-0.050705	9.822441	-0.012894	0.013094	-0.006586				-0.934616	-0.095356	35.760070
13885	15145720	0.087708	-0.051558	9.821196	-0.002804	0.005056	0.010099				-0.930457	-0.098277	35.763851
13888	15145745	0.091235	-0.032598	9.808813	0.010553	0.013493	-0.012207				-0.928942	-0.096373	35.762078
13892	15145770	0.099934	-0.047229	9.825384	0.006773	-0.007381	0.013308	0.271668	-0.267095	-1.000137	-0.927975	-0.097399	35.763999
13895	15145795	0.094181	-0.041943	9.808860	0.005282	0.015478	0.017266				-0.927223	-0.095142	35.766429
13899	15145820	0.073895	-0.039674	9.821074	-0.006442	-0.003229	-0.013544				-0.927219	-0.098096	35.762897
13902	15145845	0.103554	-0.047143	9.840496	-0.003526	0.008164	-0.005673				-0.927722	-0.096940	35.762059
13906	15145870	0.090239	-0.051609	9.822585	-0.016612	0.013907	0.002289	0.271181	-0.266594	-1.000128	-0.930102	-0.094943	35.762356
13909	15145895	0.064636	-0.053465	9.829275	-0.013591	-0.001708	-0.005926				-0.932048	-0.095201	35.761508
13913	15145920	0.092971	-0.050071	9.847286	-0.009485	-0.005358	0.008965				-0.927191	-0.095498	35.768243
13916	15145945	0.098522	-0.059184	9.861060	0.004093	-0.015821	0.008191				-0.926606	-0.097745	35.769450
13920	15145970	0.088471	-0.036472	9.837614	0.012666	0.013770	0.008713	0.270248	-0.268549	-1.000674	-0.924794	-0.095753	35.770670
13923	15145995	0.087024	-0.038135	9.840359	-0.015831	0.012086	-0.009319				-0.927060	-0.094043	35.769304
13927	15146020	0.096789	-0.043248	9.840432	0.001961	0.014190	-0.004043				-0.922940	-0.096059	35.772313
13930	15146045	0.095708	-0.058351	9.828136	-0.017627	0.003871	-0.001630				-0.925464	-0.095508	35.772073
13934	15146070	0.108006	-0.052429	9.815851	0.006181	0.009684	-0.009890	0.271209	-0.268071	-1.000163	-0.924576	-0.094144	35.770636
13937	15146095	0.065502	-0.041274	9.829244	-0.013594	0.023595	0.019948				-0.926528	-0.090719	35.773435
13941	15146120	0.084990	-0.066298	9.834935	-0.001189	0.010450	-0.000063				-0.923491	-0.093003	35.771038
13944	15146145	0.087700	-0.051644	9.832170	-0.007865	-0.010602	0.000980				-0.924618	-0.094519	35.771211
13948	15146170	0.083444	-0.046237	9.830759	-0.011323	-0.003725	-0.011098	0.272142	-0.266116	-0.999617	-0.926237	-0.095079	35.769620
13951	15146195	0.090338	-0.071367	9.845970	0.013548	0.005622	-0.015208				-0.924293	-0.094309	35.767428
13955	15146220	0.083534	-0.050104	9.829398	0.006151	0.003888	0.012732				-0.923789	-0.093131	35.775547
13958	15146245	0.096903	-0.051430	9.819885	-0.006644	0.015119	0.002035				-0.924741	-0.090961	35.775798
13962	15146270	0.096901	-0.040417	9.833558	0.010292	0.001378	0.006349	0.272133	-0.265624	-0.999605	-0.923268	-0.090749	35.776710
13965	15146295	0.077877	-0.057174	9.836235	-0.013717	0.019073	-0.013912				-0.925230	-0.088049	35.774681
13969	15146320	0.098328	-0.055098	9.839108	0.015554	0.000030	0.004187				-0.915578	-0.092032	35.777017
13972	15146345	0.093270	-0.060870	9.829483	-0.007604	-0.003415	-0.000712				-0.916667	-0.092523	35.776925
13976	15146370	0.098852	-0.071654	9.817223	-0.011328	-0.002560	-0.004055	0.270709	-0.266091	-0.999624	-0.918288	-0.092899	35.776350
13979	15146395	0.095601	-0.055322	9.834972	-0.000067	0.009610	0.004564				-0.918299	-0.091512	35.776980
13983	15146420	0.071391	-0.056067	9.833447	-0.016032	-0.005722	0.009394				-0.919032	-0.093068	35.778265
13986	15146445	0.086320	-0.055745	9.807481	-0.008419	0.012979	0.021435				-0.920243	-0.091160	35.781310
13990	15146470	0.100149	-0.056919	9.815818	-0.016500	-0.013958	0.010371	0.272141	-0.267598	-1.000641	-0.922608	-0.093135	35.782822
13993	15146495	0.103897	-0.043280	9.803454	-0.001787	-0.002985	0.017841				-0.922868	-0.093522	35.785382
13997	15146520	0.074551	-0.070748	9.808830	-0.005153	-0.006762	0.009274				-0.919842	-0.094766	35.786994
14000	15146545	0.078115	-0.049171	9.811510	-0.002466	0.008209	-0.017086				-0.920191	-0.093630	35.784523
14004	15146570	0.082492	-0.069071	9.821218	-0.003183	-0.001447	0.000799	0.273116	-0.267117	-0.999635	-0.920647	-0.093835	35.784634
14007	15146595	0.074156	-0.058647	9.825246	-0.017664	0.008731	-0.012580				-0.923174	-0.092614	35.782813
14011	15146620	0.086451	-0.065118	9.826714	-0.001599	0.002573	0.008695				-0.917621	-0.095902	35.790181
14014	15146645	0.105165	-0.045881	9.818558	-0.007531	-0.003268	-0.012122				-0.918697	-0.096398	35.788458
14018	15146670	0.058582	-0.088336	9.821118	0.010890	-0.008452	0.008720	0.273111	-0.267612	-1.000142	-0.917139	-0.097588	35.789720
14021	15146695	0.056452	-0.066795	9.829262	-0.000039	0.017646	0.008555				-0.917146	-0.095041	35.790908
14025	15146720	0.062485	-0.082893	9.832090	0.002697	-0.000852	0.007200				-0.915767	-0.098543	35.791157
14028	15146745	0.075748	-0.081443	9.843161	-0.016020	-0.006332	-0.009321				-0.918059	-0.099472	35.789841
14032	15146770	0.064544	-0.071987	9.852648	-0.006093	0.005549	0.010113	0.272155	-0.267595	-1.000146	-0.918934	-0.098654	35.791272
14035	15146795	0.075338	-0.058622	9.821142	-0.012615	0.015584	0.005418				-0.920743	-0.096409	35.792015
14039	15146820	0.082311	-0.071968	9.848650	-0.020364	-0.007404	0.001842				-0.918346	-0.099233	35.795078
14042	15146845	0.074242	-0.077440	9.840392	-0.014378	0.011471	-0.000797				-0.920406	-0.097592	35.794940
14046	15146870	0.086636	-0.074431	9.834974	-0.002778	-0.003400	-0.002152	0.272624	-0.267111	-1.000132	-0.920803	-0.098084	35.794644
14049	15146895	0.073213	-0.078790	9.839017	-0.013803	-0.013322	-0.004342				-0.922779	-0.100002	35.794044
14053	15146920	0.082056	-0.057137	9.834888	-0.013109	0.017782	-0.000827				-0.920978	-0.095363	35.797105
14056	15146945	0.074098	-0.049201	9.818356	-0.013301	0.001855	-0.009091				-0.922880	-0.095118	35.795792
14060	15146970	0.063463	-0.073588	9.838925	-0.008984	0.000207	-0.005151	0.272629	-0.266617	-0.999626	-0.924166	-0.095100	35.795061
14063	15146995	0.062404	-0.078927	9.830716	-0.009339	-0.007503	0.006410				-0.925505	-0.096160	35.795992
14067	15147020	0.069732	-0.058519	9.830698	-0.001617	0.020078	0.008151				-0.922866	-0.096192	35.797564
14070	15147045	0.077199	-0.065178	9.836253	-0.003593	-0.014322	0.006340				-0.923382	-0.098228	35.798500
14074	15147070	0.070137	-0.061229	9.821105	0.002804	-0.003907	0.002581	0.273565	-0.267130	-1.000623	-0.922981	-0.098782	35.798888
14077	15147095	0.097247	-0.062269	9.833644	-0.014177	0.000721	-0.010084				-0.925009	-0.098702	35.797437
14081	15147120	0.056523	-0.048196	9.823713	-0.016075	-0.003348	-0.009266				-0.923112	-0.102410	35.800497
14084	15147145	0.102609	-0.066144	9.814486	-0.006865	0.017303	-0.003740				-0.924094	-0.099940	35.799922
14088	15147170	0.072446	-0.036974	9.830653	-0.008775	0.001608	-0.001000	0.274520	-0.267147	-1.000618	-0.925351	-0.099713	35.799772
14091	15147195	0.084330	-0.043444	9.843096	-0.003952	0.014076	-0.016706				-0.925913	-0.097735	35.797344
14095	15147220	0.075530	-0.062713	9.832129	-0.017662	0.003283	-0.011420				-0.926397	-0.101256	35.798573
14098	15147245	0.067315	-0.067816	9.854031	-0.000159	0.002035	0.001034				-0.926420	-0.100962	35.798714
14102	15147270	0.075748	-0.062342	9.821143	0.014946	-0.002517	-0.004469	0.274082	-0.266144	-0.998618	-0.924278	-0.101333	35.798084
14105	15147295	0.068529	-0.045010	9.836130	0.005020	-0.005913	0.006397				-0.923560	-0.102165	35.799004
14109	15147320	0.083588	-0.059431	9.843137	0.011836	-0.001346	-0.006194				-0.919635	-0.101629	35.796667
14112	15147345	0.076858	-0.062568	9.840366	-0.008121	-0.006127	-0.011179				-0.920796	-0.102532	35.795080
14116	15147370	0.098582	-0.054097	9.818542	-0.005671	0.000462	-0.011200	0.273150	-0.266618	-0.998139	-0.921605	-0.102492	35.793469
14119	15147395	0.086283	-0.054174	9.825315	0.000569	0.004756	-0.018834				-0.921519	-0.101854	35.790762
14123	15147420	0.079288	-0.045226	9.811522	-0.019060	0.016658	0.007726				-0.920114	-0.102989	35.797839
14126	15147445	0.086329	-0.054430	9.796509	-0.007141	0.017683	-0.012664				-0.921133	-0.100485	35.795975
14130	15147470	0.104071	-0.061883	9.821345	0.008412	-0.001583	-0.027230	0.274066	-0.267628	-1.000137	-0.919921	-0.100775	35.792083
14133	15147495	0.087747	-0.058395	9.823958	-0.011915	0.000103	-0.000371				-0.921628	-0.100761	35.792026
14137	15147520	0.086139	-0.049934	9.828039	0.016725	0.001121	-0.012462				-0.913929	-0.102073	35.789737
14140	15147545	0.079630	-0.070594	9.839028	-0.005737	0.004692	-0.000013				-0.914751	-0.101401	35.789735
14144	15147570	0.099654	-0.053872	9.834995	0.005710	0.003390	-0.005296	0.273626	-0.268108	-0.999161	-0.913931	-0.100927	35.788966
14147	15147595	0.080484	-0.046099	9.848556	0.005661	0.008062	-0.012504				-0.913117	-0.099801	35.787150
14151	15147620	0.105202	-0.048536	9.815825	0.000781	-0.001362	-0.017129				-0.912016	-0.103216	35.788696
14154	15147645	0.076700	-0.069106	9.839008	0.000876	0.024502	-0.008437				-0.911888	-0.099726	35.787436
14158	15147670	0.104067	-0.052575	9.822687	-0.000235	-0.011133	0.014439	0.273613	-0.266629	-0.998632	-0.911926	-0.101288	35.789529
14161	15147695	0.113684	-0.070014	9.835150	-0.008929	-0.009172	-0.008132				-0.913202	-0.102620	35.788387
14165	15147720	0.088538	-0.036787	9.837611	-0.006476	0.009720	-0.025524				-0.908527	-0.100895	35.785764
14168	15147745	0.087282	-0.048804	9.825311	-0.004083	0.018911	-0.021882				-0.909106	-0.098236	35.782584
14172	15147770	0.080551	-0.039467	9.845798	-0.000916	-0.007538	-0.007188	0.272645	-0.265133	-0.998107	-0.909236	-0.099333	35.781569
14175	15147795	0.095305	-0.048554	9.852776	0.001808	0.011669	0.010726				-0.908980	-0.097637	35.783074
14179	15147820	0.085956	-0.045003	9.852712	-0.029601	0.006323	-0.004053				-0.911246	-0.101837	35.781747
14182	15147845	0.091425	-0.050321	9.840426	-0.026196	0.003819	-0.016145				-0.914993	-0.101327	35.779417
14186	15147870	0.084493	-0.038184	9.825250	-0.008127	0.015424	-0.007960	0.272734	-0.267588	-0.996680	-0.916156	-0.099136	35.778241
14189	15147895	0.083066	-0.026372	9.823828	-0.026739	-0.001273	0.007285				-0.919987	-0.099302	35.779282
14193	15147920	0.083335	-0.035617	9.827976	-0.020553	0.000198	-0.007102				-0.915337	-0.099502	35.781381
14196	15147945	0.092864	-0.053933	9.841813	0.001201	0.005196	-0.016424				-0.915161	-0.098795	35.779019
14200	15147970	0.078967	-0.035624	9.841662	-0.012335	0.005479	-0.006700	0.273212	-0.267596	-0.996678	-0.916926	-0.098025	35.778044
14203	15147995	0.068500	-0.051803	9.856728	-0.011072	-0.007895	0.009042				-0.918515	-0.099135	35.779355
14207	15148020	0.089631	-0.026984	9.836208	0.014228	0.016613	-0.003716				-0.915213	-0.097891	35.780513
14210	15148045	0.098124	-0.040743	9.836323	-0.019449	0.009888	-0.017335				-0.917995	-0.096514	35.778011
14214	15148070	0.086023	-0.036650	9.822514	0.001830	0.006555	-0.018245	0.274191	-0.268102	-0.996190	-0.917728	-0.095617	35.775382
14217	15148095	0.080801	-0.047618	9.821131	0.002596	0.005102	-0.007445				-0.917355	-0.094904	35.774306
14221	15148120	0.063615	-0.057510	9.823793	-0.018099	-0.022291	0.002816				-0.918402	-0.101984	35.779118
14224	15148145	0.084801	-0.044889	9.829384	-0.003715	0.001435	-0.007395				-0.918932	-0.101795	35.778050
14228	15148170	0.082313	-0.063707	9.804741	0.004323	0.013913	-0.000905	0.274621	-0.267131	-0.997154	-0.918313	-0.099805	35.777892
14231	15148195	0.071271	-0.047986	9.815586	-0.012819	0.011829	-0.002016				-0.920149	-0.098115	35.777580
14235	15148220	0.074343	-0.058724	9.818386	-0.013345	0.004828	-0.023863				-0.916337	-0.100523	35.775165
14238	15148245	0.077602	-0.022272	9.829269	-0.017570	-0.000621	0.003277				-0.918855	-0.100605	35.775641
14242	15148270	0.084424	-0.039286	9.859528	0.002362	0.007263	-0.005572	0.275117	-0.268124	-0.997175	-0.918515	-0.099578	35.774826
14245	15148295	0.086922	-0.035582	9.840348	-0.023451	0.019868	-0.004272				-0.921873	-0.096742	35.774169
14249	15148320	0.057635	-0.045312	9.845660	-0.015096	-0.002278	-0.009207				-0.919005	-0.100306	35.775338
14252	15148345	0.091814	-0.060647	9.830852	0.010064	-0.002439	0.009257				-0.917565	-0.100634	35.776671
14256	15148370	0.087302	-0.052629	9.837662	0.011414	0.011714	-0.006838	0.276083	-0.267151	-0.996157	-0.915929	-0.098972	35.775663
14259	15148395	0.077676	-0.049006	9.832094	-0.000434	0.023064	0.003655				-0.915991	-0.095661	35.776134
14263	15148420	0.087263	-0.050365	9.829423	-0.014913	0.020382	-0.019141				-0.917911	-0.095330	35.773936
14266	15148445	0.085015	-0.069241	9.839064	-0.016326	0.011954	-0.019437				-0.920245	-0.093663	35.771135
14270	15148470	0.090219	-0.054152	9.843164	-0.010149	0.004379	-0.016694	0.275559	-0.266162	-0.997126	-0.921695	-0.093074	35.768730
14273	15148495	0.076810	-0.062403	9.822527	0.007877	0.010546	-0.002858				-0.920566	-0.091570	35.768294
14277	15148520	0.083736	-0.060982	9.830802	-0.001653	-0.002667	-0.020806				-0.918483	-0.092262	35.768178
14280	15148545	0.084951	-0.044822	9.825275	0.001462	-0.010300	-0.001548				-0.918273	-0.093740	35.767987
14284	15148570	0.087539	-0.038113	9.815667	-0.004658	-0.004290	0.003360	0.272735	-0.266106	-0.995655	-0.918941	-0.094347	35.768466
14287	15148595	0.105990	-0.034914	9.833620	-0.002611	0.014040	-0.002885				-0.919314	-0.092343	35.768030
14291	15148620	0.088777	-0.050160	9.834915	-0.010978	0.007316	-0.024150				-0.915872	-0.093923	35.766896
14294	15148645	0.091920	-0.062300	9.833611	-0.009753	-0.012244	-0.001343				-0.917269	-0.095680	35.766731
14298	15148670	0.105452	-0.048669	9.819937	-0.012249	-0.018401	-0.004663	0.274140	-0.266135	-0.996638	-0.919022	-0.098326	35.766103
14301	15148695	0.075651	-0.057068	9.823880	0.002147	-0.012933	0.008120				-0.918717	-0.100160	35.767295
14305	15148720	0.088767	-0.044784	9.836278	-0.008772	-0.005278	0.008889				-0.917148	-0.099128	35.768763
14308	15148745	0.089957	-0.032447	9.837609	0.004944	-0.000794	0.004844				-0.916441	-0.099231	35.769463
14312	15148770	0.072720	-0.054453	9.840316	-0.004114	0.000224	-0.011282	0.274650	-0.267126	-0.996164	-0.917027	-0.099225	35.767847
14315	15148795	0.077942	-0.038011	9.832060	0.011344	-0.010058	0.001147				-0.915403	-0.100663	35.768036
14319	15148820	0.089225	-0.078699	9.837754	-0.026259	0.002763	0.003721				-0.916978	-0.102727	35.771626
14322	15148845	0.100274	-0.059482	9.811707	-0.004098	-0.014547	-0.012097				-0.917561	-0.104838	35.769925
14326	15148870	0.087216	-0.050148	9.841761	-0.000815	0.014195	0.002812	0.274726	-0.268102	-0.994208	-0.917679	-0.102798	35.770297
14329	15148895	0.095336	-0.052642	9.851427	0.001045	0.005831	0.005785				-0.917531	-0.101950	35.771113
14333	15148920	0.084705	-0.042419	9.825265	-0.018756	0.005355	-0.014374				-0.915231	-0.105575	35.770530
14336	15148945	0.063185	-0.065135	9.856732	0.006461	-0.001994	-0.017837				-0.914301	-0.105901	35.767980
14340	15148970	0.095591	-0.052596	9.833605	0.004391	0.002024	0.006653	0.274665	-0.267124	-0.995669	-0.913674	-0.105596	35.768926
14343	15148995	0.098415	-0.050029	9.836351	-0.008054	0.006425	0.006033				-0.914829	-0.104662	35.769778
14347	15149020	0.083969	-0.075983	9.836338	-0.019397	-0.019291	-0.004561				-0.912798	-0.109593	35.771000
14350	15149045	0.059275	-0.064293	9.825158	-0.010461	0.008175	0.022064				-0.914302	-0.108372	35.774138
14354	15149070	0.068384	-0.063910	9.847167	-0.008206	0.023165	-0.022078	0.275606	-0.267143	-0.996159	-0.915471	-0.105104	35.770919
14357	15149095	0.070961	-0.041372	9.845742	-0.035474	0.001937	-0.013815				-0.920549	-0.104859	35.768939
14361	15149120	0.094418	-0.058391	9.832247	-0.033216	0.001395	-0.015825				-0.917877	-0.106078	35.771380
14364	15149145	0.078417	-0.076009	9.843147	-0.009041	0.005057	-0.001740				-0.919171	-0.105358	35.771115
14368	15149170	0.105419	-0.066024	9.824101	-0.006890	-0.001970	-0.009304	0.275631	-0.266151	-0.994652	-0.920156	-0.105661	35.769793
14371	15149195	0.068726	-0.063724	9.841678	0.009085	0.006774	-0.011578				-0.918851	-0.104718	35.768124
14375	15149220	0.079321	-0.054319	9.837609	-0.000288	0.003165	0.000763				-0.921771	-0.107033	35.769788
14378	15149245	0.085029	-0.057087	9.829418	-0.010350	0.002310	-0.001121				-0.923253	-0.106705	35.769620
14382	15149270	0.073962	-0.055874	9.826591	-0.001203	0.010468	0.003228	0.275654	-0.266641	-0.994168	-0.923426	-0.105198	35.770059
14385	15149295	0.073101	-0.062670	9.822507	-0.004914	-0.018521	0.002468				-0.924131	-0.107845	35.770457
14389	15149320	0.060884	-0.060034	9.815549	0.003995	-0.005631	0.018875				-0.918052	-0.107090	35.773112
14392	15149345	0.057585	-0.053471	9.822365	-0.007547	0.023521	-0.002894				-0.919132	-0.103728	35.772644
14396	15149370	0.057649	-0.041387	9.823709	-0.011562	-0.003847	-0.001982	0.275186	-0.267125	-0.994182	-0.920788	-0.104284	35.772363
14399	15149395	0.070532	-0.077640	9.818419	-0.013457	-0.004086	0.013739				-0.922719	-0.104837	35.774351
14403	15149420	0.075726	-0.067928	9.822538	-0.005502	-0.008599	-0.007424				-0.918776	-0.110250	35.773763
14406	15149445	0.070176	-0.057561	9.827953	-0.029086	-0.006972	0.005442				-0.922944	-0.111236	35.774564
14410	15149470	0.078576	-0.054691	9.780006	-0.010070	-0.001971	0.007540	0.274726	-0.268102	-0.994208	-0.924389	-0.111501	35.775644
14413	15149495	0.084940	-0.064852	9.839053	0.004151	0.003842	-0.016101				-0.923790	-0.110988	35.773332
14417	15149520	0.050850	-0.054944	9.857985	-0.018577	0.002076	0.008844				-0.925483	-0.113808	35.780975
14420	15149545	0.074322	-0.074654	9.832161	-0.012018	0.004756	0.008199				-0.927206	-0.113107	35.782133
14424	15149570	0.070201	-0.059925	9.811508	-0.002138	0.000550	-0.004052	0.275204	-0.268110	-0.994205	-0.927511	-0.113038	35.781550
14427	15149595	0.079779	-0.069314	9.829433	-0.015496	-0.008938	0.003098				-0.929732	-0.114311	35.782014
14431	15149620	0.076969	-0.065242	9.811565	-0.001314	0.012697	-0.019929				-0.923594	-0.112822	35.778268
14434	15149645	0.076748	-0.059721	9.830756	-0.003251	0.005275	0.003386				-0.924061	-0.112058	35.778744
14438	15149670	0.084903	-0.051307	9.834888	0.015189	-0.001003	-0.013396	0.277115	-0.268143	-0.994196	-0.921881	-0.112233	35.776823
14441	15149695	0.065991	-0.081658	9.845838	-0.018872	0.007649	-0.002177				-0.924584	-0.111143	35.776494
14445	15149720	0.082135	-0.055673	9.836270	-0.009501	0.012594	0.004204				-0.921964	-0.113761	35.779686
14448	15149745	0.084791	-0.068883	9.844550	0.004803	0.008926	-0.013505				-0.921273	-0.112514	35.777731
14452	15149770	0.068818	-0.071941	9.834846	0.007059	0.009084	-0.008152	0.276671	-0.267635	-0.992702	-0.920259	-0.111232	35.776545
14455	15149795	0.061707	-0.049259	9.833352	-0.005582	-0.006273	0.007659				-0.921061	-0.112112	35.777648
14459	15149820	0.095571	-0.047470	9.828093	-0.009364	0.013590	-0.010894				-0.920802	-0.110289	35.776546
14462	15149845	0.094555	-0.057973	9.825378	0.008307	-0.004221	-0.013272				-0.919608	-0.110924	35.774659
14466	15149870	0.102740	-0.048659	9.814425	-0.006351	-0.009634	-0.010131	0.275683	-0.266636	-0.993179	-0.920515	-0.112327	35.773222
14469	15149895	0.077906	-0.036757	9.829317	0.003625	-0.005908	-0.009745				-0.919993	-0.113195	35.771847
14473	15149920	0.076696	-0.054431	9.838962	-0.007969	0.003016	0.004716				-0.918961	-0.114834	35.776928
14476	15149945	0.092025	-0.069184	9.815799	-0.015301	0.005765	0.003943				-0.921154	-0.113999	35.777482
14480	15149970	0.095835	-0.052662	9.818508	0.008459	0.002798	0.003088	0.275238	-0.267611	-0.992709	-0.919943	-0.113591	35.777916
14483	15149995	0.101863	-0.036395	9.861023	-0.006059	0.003201	0.002018				-0.920811	-0.113128	35.778195
14487	15150020	0.079230	-0.042233	9.844430	-0.007047	0.007570	0.011875				-0.916937	-0.115417	35.780258
14490	15150045	0.075342	-0.047488	9.838933	0.002880	-0.003935	0.000252				-0.916524	-0.115981	35.780293
14494	15150070	0.086902	-0.024446	9.858133	-0.004993	0.006618	-0.009404	0.274259	-0.267104	-0.993197	-0.917237	-0.115054	35.778935
14497	15150095	0.130350	-0.080450	9.772210	0.005938	0.012216	-0.005846				-0.916384	-0.113318	35.778076
14501	15150120	0.062014	-0.019494	9.864805	0.001042	0.030391	-0.006033				-0.914456	-0.112322	35.780223
14504	15150145	0.056385	-0.072141	9.837505	0.002177	0.017166	0.012591				-0.914147	-0.109835	35.781988
14508	15150170	0.129601	-0.037226	9.804993	0.007036	-0.003068	0.009033	0.275162	-0.266635	-0.994666	-0.913142	-0.110254	35.783297
14511	15150195	0.075577	-0.062451	9.806069	0.000528	0.011815	-0.010930				-0.913063	-0.108587	35.781695
14515	15150220	0.092202	-0.020303	9.856785	0.005773	0.002421	0.003836				-0.907966	-0.110232	35.784831
14518	15150245	0.123914	-0.042754	9.887248	-0.016028	-0.014000	-0.010337				-0.910259	-0.112260	35.783387
14522	15150270	0.104331	-0.129690	9.769447	-0.007510	-0.007391	-0.010471	0.275705	-0.268608	-0.993720	-0.911332	-0.113343	35.781903
14525	15150295	0.103381	0.035265	9.871775	0.004430	0.002536	-0.001387				-0.910696	-0.112983	35.781690
14529	15150320	0.091539	-0.048632	9.854135	0.001228	-0.010584	0.005044				-0.907582	-0.115251	35.783084
14532	15150345	0.076858	-0.079823	9.844522	0.009993	0.011396	0.011037				-0.906154	-0.113594	35.784633
14536	15150370	0.096995	0.033385	9.830585	-0.010327	0.008500	0.007924	0.274750	-0.268592	-0.993724	-0.907635	-0.112359	35.785751
14539	15150395	0.096517	-0.070817	9.754118	-0.027066	0.004783	-0.014581				-0.911508	-0.111707	35.783650
14543	15150420	0.048299	-0.045996	9.944348	0.012213	0.019442	-0.012968				-0.901749	-0.111316	35.785619
14546	15150445	0.132484	0.034055	9.810257	0.001687	-0.000787	-0.009005				-0.901505	-0.111449	35.784326
14550	15150470	0.134400	-0.099225	9.809332	0.003834	0.009286	-0.016885	0.274252	-0.269080	-0.994728	-0.900951	-0.110157	35.781890
14553	15150495	0.056383	0.016902	9.883849	0.006217	-0.009267	0.006475				-0.900062	-0.111470	35.782833
14557	15150520	0.107707	-0.115679	9.807817	0.010909	0.004642	-0.008196				-0.899759	-0.110932	35.780567
14560	15150545	0.052450	0.003436	9.859181	0.012861	0.006378	-0.011854				-0.897913	-0.110046	35.778865
14564	15150570	0.099072	-0.016116	9.845840	0.005451	0.001608	-0.015144	0.274268	-0.267596	-0.993209	-0.897128	-0.109849	35.776690
14567	15150595	0.121482	-0.029458	9.785688	0.007883	0.001678	-0.008108				-0.895997	-0.109627	35.775523
14571	15150620	0.106657	-0.036450	9.813048	-0.001039	-0.014052	-0.020556				-0.892882	-0.115293	35.776552
14574	15150645	0.067937	-0.019250	9.851121	0.012493	-0.004533	-0.024085				-0.891085	-0.115996	35.773115
14578	15150670	0.069377	-0.030057	9.852542	0.009732	0.007875	-0.003251	0.276194	-0.267627	-0.992705	-0.889690	-0.114876	35.772630
14581	15150695	0.077794	-0.016793	9.819648	-0.008968	-0.017174	0.011960				-0.890978	-0.117309	35.774382
14585	15150720	0.098080	-0.036481	9.822597	-0.000329	0.007723	0.002171				-0.885104	-0.115615	35.771713
14588	15150745	0.066343	-0.008656	9.860695	-0.000930	-0.000149	0.015485				-0.885242	-0.115603	35.773932
14592	15150770	0.097016	-0.036625	9.808879	-0.003454	-0.003810	0.009143	0.276161	-0.266645	-0.993176	-0.885740	-0.116128	35.775245
14595	15150795	0.098139	-0.039139	9.841798	-0.011624	-0.000916	-0.013162				-0.887401	-0.116288	35.773367
14599	15150820	0.047648	-0.023912	9.848260	-0.008619	-0.002703	0.010557				-0.884763	-0.120999	35.778495
14602	15150845	0.115625	-0.029721	9.822691	-0.010443	0.004488	-0.014463				-0.886254	-0.120388	35.776413
14606	15150870	0.081621	-0.019226	9.832019	-0.000840	-0.001875	0.001334	0.275645	-0.266149	-0.994157	-0.886375	-0.120654	35.776616
14609	15150895	0.102163	-0.024347	9.799257	0.010991	0.014350	-0.001056				-0.884800	-0.118601	35.776429
14613	15150920	0.080663	-0.048845	9.856811	-0.006799	-0.011937	0.019181				-0.885512	-0.124555	35.777531
14616	15150945	0.093931	-0.023076	9.823895	0.008419	-0.000015	0.005239				-0.884307	-0.124546	35.778286
14620	15150970	0.123897	-0.041729	9.833755	-0.023404	0.012799	-0.010727	0.274283	-0.267594	-0.992714	-0.887656	-0.122736	35.776722
14623	15150995	0.075161	-0.030102	9.814186	-0.002326	0.008284	-0.007686				-0.887987	-0.121567	35.775601
14627	15151020	0.098129	-0.051418	9.837725	-0.009391	0.014962	-0.004041				-0.883921	-0.120625	35.776089
14630	15151045	0.100762	-0.036322	9.828098	0.003240	0.007491	0.003572				-0.883458	-0.119545	35.776587
14634	15151070	0.076533	-0.047404	9.843042	0.014265	0.005083	-0.002591	0.274368	-0.269062	-0.990769	-0.881414	-0.118823	35.776195
14637	15151095	0.090350	-0.039488	9.823915	-0.008692	-0.008307	0.002815				-0.882660	-0.120006	35.776626
14641	15151120	0.088770	-0.043268	9.822555	0.005843	0.006497	0.006436				-0.877404	-0.118785	35.776085
14644	15151145	0.079280	-0.050187	9.840323	0.004752	0.009142	0.015497				-0.876728	-0.117441	35.778280
14648	15151170	0.091723	-0.054057	9.832203	0.006621	-0.005823	0.016543	0.275314	-0.268586	-0.990753	-0.875784	-0.118239	35.780665
14651	15151195	0.084866	-0.050240	9.825288	0.000542	-0.005372	0.001544				-0.875707	-0.119005	35.780905
14655	15151220	0.109496	-0.064706	9.843328	-0.009397	-0.004339	0.022466				-0.874879	-0.122071	35.784264
14658	15151245	0.078429	-0.062587	9.829399	-0.010654	-0.008669	-0.016433				-0.876400	-0.123348	35.781927
14662	15151270	0.083612	-0.050154	9.828013	0.005408	-0.002310	-0.009565	0.275228	-0.268600	-0.993722	-0.875623	-0.123700	35.780565
14665	15151295	0.098417	-0.048868	9.811662	-0.010575	-0.002834	0.002463				-0.877139	-0.124101	35.780927
14669	15151320	0.104188	-0.052693	9.815821	0.000894	-0.014316	0.001101				-0.871914	-0.128590	35.780997
14672	15151345	0.091516	-0.055429	9.833577	-0.000799	0.011557	-0.022995				-0.872021	-0.126985	35.777678
14676	15151370	0.097191	-0.059436	9.847351	-0.013533	-0.007951	-0.003801	0.275687	-0.267623	-0.993697	-0.873959	-0.128132	35.777150
14679	15151395	0.080489	-0.050090	9.859533	0.004187	0.007047	-0.001603				-0.873358	-0.127126	35.776905
14683	15151420	0.068271	-0.048874	9.840261	0.011168	0.015068	-0.009659				-0.870368	-0.128472	35.776047
14686	15151445	0.079805	-0.066434	9.826676	-0.000177	-0.008515	0.002697				-0.870395	-0.129686	35.776460
14690	15151470	0.103220	-0.076822	9.811793	0.006208	-0.012295	0.004360	0.277126	-0.267154	-0.993183	-0.869507	-0.131437	35.777106
14693	15151495	0.089873	-0.046230	9.832166	-0.005938	0.022334	-0.011124				-0.870354	-0.128263	35.775467
14697	15151520	0.080543	-0.042086	9.832087	0.004549	0.010040	-0.012492				-0.864749	-0.131097	35.774989
14700	15151545	0.091618	-0.072740	9.858320	0.004202	0.014028	0.001390				-0.864148	-0.129085	35.775162
14704	15151570	0.087319	-0.043455	9.855458	-0.007950	-0.009300	-0.010951	0.276213	-0.267130	-0.991703	-0.865283	-0.130440	35.773619
14707	15151595	0.082033	-0.059614	9.832159	-0.003323	0.014873	-0.005955				-0.865757	-0.128323	35.772724
14711	15151620	0.098118	-0.044718	9.847307	-0.013722	0.006455	-0.006333				-0.864593	-0.128432	35.771075
14714	15151645	0.090314	-0.040635	9.834894	0.005697	-0.016531	-0.001065				-0.863776	-0.130802	35.770966
14718	15151670	0.083368	-0.038159	9.836213	-0.005399	-0.007918	-0.007881	0.275758	-0.269094	-0.992247	-0.864547	-0.131953	35.769846
14721	15151695	0.090029	-0.048715	9.845888	-0.002341	-0.000976	-0.018583				-0.864876	-0.132133	35.767179
14725	15151720	0.067633	-0.081305	9.840343	0.011764	0.006495	0.007749				-0.859838	-0.130966	35.770153
14728	15151745	0.076820	-0.061045	9.838979	0.001942	-0.006031	-0.012416				-0.859556	-0.131856	35.768394
14732	15151770	0.097590	-0.076884	9.825462	-0.001182	-0.001712	0.003292	0.275298	-0.270070	-0.992272	-0.859727	-0.132094	35.768873
14735	15151795	0.112214	-0.030824	9.817184	0.005330	-0.039889	-0.014527				-0.858958	-0.137839	35.766874
14739	15151820	0.071259	-0.063962	9.826605	-0.000748	0.022244	0.001258				-0.856665	-0.131163	35.766414
14742	15151845	0.074154	-0.065158	9.825266	-0.003929	0.006157	-0.013506				-0.857224	-0.130310	35.764470
14746	15151870	0.082148	-0.047879	9.825263	-0.016025	-0.001931	-0.006036	0.274768	-0.269576	-0.993748	-0.859517	-0.130599	35.763602
14749	15151895	0.109719	-0.075257	9.817309	0.007065	0.001727	0.001830				-0.858506	-0.130348	35.763858
14753	15151920	0.105557	-0.072674	9.820015	0.003953	0.002044	0.000030				-0.854685	-0.138127	35.761605
14756	15151945	0.090797	-0.075634	9.821297	0.011696	-0.004052	0.013494				-0.853014	-0.138679	35.763547
14760	15151970	0.074053	-0.061291	9.834848	-0.014891	0.006199	0.017083	0.274757	-0.266615	-0.992194	-0.855153	-0.137754	35.765983
14763	15151995	0.065712	-0.050446	9.838873	-0.003475	0.003700	0.003007				-0.855652	-0.137218	35.766401
14767	15152020	0.085237	-0.070698	9.833582	-0.019076	-0.005995	0.012520				-0.853383	-0.140412	35.767935
14770	15152045	0.084574	-0.047305	9.860931	-0.005251	-0.004347	-0.007147				-0.854133	-0.141050	35.766923
14774	15152070	0.073461	-0.038129	9.848491	0.009479	0.015074	0.003305	0.275296	-0.267601	-0.990730	-0.852777	-0.138884	35.767371
14777	15152095	0.068771	-0.054392	9.827933	0.003067	-0.013813	0.001492				-0.852338	-0.140859	35.767608
14781	15152120	0.092993	-0.048775	9.821226	0.000726	0.004949	0.002380				-0.849678	-0.139711	35.768151
14784	15152145	0.101682	-0.068768	9.815865	0.000547	-0.008547	-0.009239				-0.849597	-0.140955	35.766853
14788	15152170	0.079387	-0.037027	9.830698	-0.019220	-0.010164	-0.002769	0.275324	-0.269079	-0.990764	-0.852349	-0.142416	35.766478
14791	15152195	0.071382	-0.047804	9.804612	-0.000469	0.003171	0.005879				-0.852418	-0.141950	35.767316
14795	15152220	0.074016	-0.028714	9.799093	0.009806	-0.001127	-0.009663				-0.847009	-0.146650	35.765414
14798	15152245	0.079191	-0.048973	9.811531	0.003181	0.018884	0.013456				-0.846559	-0.143917	35.767299
14802	15152270	0.077713	-0.038136	9.826563	0.009350	0.013833	-0.008835	0.275280	-0.269085	-0.992249	-0.845216	-0.141955	35.766009
14805	15152295	0.103740	-0.030002	9.806154	-0.017186	-0.002101	-0.004812				-0.847676	-0.142266	35.765327
14809	15152320	0.090066	-0.042358	9.821177	-0.024021	0.016411	-0.013562				-0.845229	-0.141242	35.764913
14812	15152345	0.089722	-0.040790	9.860946	-0.021514	0.012796	0.012134				-0.848315	-0.139384	35.766621
